ax,ay,az,gx,gy,gz,dt
0.0671,-0.0309,0.9998,0.2744,0.5945,-0.5335,0.000013
0.0692,-0.0315,1.0015,0.2591,0.6021,-0.5412,0.012762
0.0672,-0.0308,1.0004,0.3735,0.5259,-0.5488,0.011980
0.0675,-0.0321,1.0007,0.2058,0.6174,-0.6021,0.012000
0.0682,-0.0308,0.9985,0.1524,0.5488,-0.5030,0.012000
0.0684,-0.0319,0.9989,0.2668,0.5107,-0.5259,0.012000
0.0663,-0.0320,1.0006,0.2134,0.5488,-0.5412,0.012000
0.0661,-0.0303,0.9984,0.2896,0.4878,-0.5564,0.012000
0.0676,-0.0305,1.0000,0.3277,0.6250,-0.5716,0.012000
0.0668,-0.0291,0.9986,0.2363,0.5945,-0.5335,0.012000
0.0676,-0.0308,1.0026,0.3201,0.5716,-0.5869,0.012000
0.0673,-0.0328,1.0010,0.3277,0.5793,-0.5716,0.012000
0.0677,-0.0311,0.9987,0.2591,0.6326,-0.5945,0.012000
0.0696,-0.0298,1.0003,0.3201,0.5793,-0.4726,0.012000
0.0660,-0.0297,1.0001,0.4116,0.5869,-0.5564,0.012000
0.0651,-0.0311,1.0002,0.2515,0.6021,-0.6174,0.012000
0.0656,-0.0314,1.0005,0.1829,0.5564,-0.5716,0.012000
0.0679,-0.0301,0.9987,0.2973,0.5412,-0.5107,0.012000
0.0668,-0.0302,0.9985,0.1829,0.6326,-0.5335,0.012000
0.0683,-0.0310,0.9995,0.2515,0.6250,-0.6250,0.012000
0.0667,-0.0314,0.9978,0.3354,0.5640,-0.6021,0.012000
0.0671,-0.0303,0.9989,0.2210,0.5564,-0.6098,0.012000
0.0707,-0.0304,0.9992,0.1601,0.5869,-0.6098,0.012000
0.0692,-0.0305,1.0016,0.3354,0.5793,-0.5793,0.012000
0.0681,-0.0309,0.9984,0.2744,0.6021,-0.6402,0.012000
0.0681,-0.0296,1.0002,0.2515,0.6555,-0.5183,0.012000
0.0670,-0.0292,1.0013,0.3430,0.6021,-0.5335,0.012000
0.0670,-0.0330,0.9996,0.3125,0.5640,-0.5335,0.012000
0.0652,-0.0323,0.9962,0.2973,0.5412,-0.5412,0.012000
0.0675,-0.0323,0.9977,0.3125,0.5488,-0.5030,0.012000
0.0676,-0.0331,1.0000,0.2820,0.6174,-0.5564,0.012000
0.0661,-0.0325,0.9999,0.3582,0.6098,-0.5335,0.012000
0.0661,-0.0299,1.0007,0.2973,0.5716,-0.5716,0.012000
0.0652,-0.0294,0.9996,0.3049,0.5869,-0.5412,0.012000
0.0662,-0.0309,0.9996,0.2973,0.5564,-0.5640,0.012000
0.0667,-0.0304,1.0001,0.3277,0.6098,-0.5259,0.012000
0.0697,-0.0303,0.9983,0.2591,0.5640,-0.5030,0.012000
0.0701,-0.0328,1.0005,0.2287,0.6555,-0.7012,0.012000
0.0673,-0.0319,0.9988,0.2210,0.6631,-0.5412,0.012000
0.0695,-0.0341,0.9982,0.2973,0.6098,-0.4649,0.012000
0.0677,-0.0312,0.9998,0.3506,0.5183,-0.5793,0.012000
0.0662,-0.0312,1.0017,0.2591,0.6174,-0.5793,0.012000
0.0662,-0.0300,0.9985,0.3125,0.6326,-0.5716,0.012000
0.0651,-0.0329,1.0005,0.3354,0.5945,-0.5183,0.012000
0.0673,-0.0314,1.0004,0.2820,0.5030,-0.5716,0.012000
0.0673,-0.0297,1.0014,0.2134,0.4802,-0.5259,0.012000
0.0676,-0.0320,1.0014,0.3582,0.6174,-0.5564,0.012000
0.0690,-0.0313,0.9998,0.3277,0.6326,-0.6098,0.012000
0.0693,-0.0303,0.9991,0.3354,0.5945,-0.4802,0.012000
0.0697,-0.0309,0.9991,0.3125,0.5869,-0.4345,0.012000
0.0688,-0.0308,0.9987,0.2287,0.5793,-0.5030,0.012000
0.0679,-0.0309,1.0009,0.2439,0.5564,-0.5107,0.012000
0.0666,-0.0309,1.0031,0.3125,0.5869,-0.6479,0.012000
0.0667,-0.0292,1.0009,0.2973,0.5564,-0.5945,0.012000
0.0650,-0.0306,0.9984,0.1982,0.5869,-0.5869,0.012000
0.0666,-0.0287,1.0009,0.2973,0.5945,-0.6174,0.012000
0.0665,-0.0321,0.9991,0.1905,0.5640,-0.4802,0.012000
0.0648,-0.0305,1.0015,0.3659,0.5107,-0.5412,0.012000
0.0677,-0.0284,0.9999,0.4040,0.5183,-0.6098,0.012000
0.0677,-0.0302,1.0010,0.2973,0.5183,-0.5716,0.012000
0.0681,-0.0309,1.0013,0.3049,0.5945,-0.5793,0.012000
0.0683,-0.0298,1.0000,0.2591,0.5716,-0.5869,0.012000
0.0664,-0.0313,1.0007,0.3201,0.6098,-0.5335,0.012000
0.0657,-0.0317,0.9999,0.3277,0.5259,-0.5183,0.012000
0.0681,-0.0295,0.9990,0.3125,0.6021,-0.5869,0.012000
0.0679,-0.0301,0.9989,0.3125,0.5030,-0.5945,0.012000
0.0702,-0.0310,1.0005,0.2744,0.5945,-0.5869,0.012000
0.0688,-0.0342,1.0022,0.2668,0.5869,-0.5793,0.012000
0.0668,-0.0330,0.9973,0.2591,0.6631,-0.5716,0.012000
0.0679,-0.0318,0.9955,0.3277,0.4192,-0.5183,0.012000
0.0675,-0.0309,1.0031,0.3659,0.6174,-0.6021,0.012000
0.0659,-0.0295,1.0015,0.3277,0.5793,-0.6402,0.012000
0.0673,-0.0295,0.9994,0.2591,0.6098,-0.6402,0.012000
0.0687,-0.0300,1.0009,0.2287,0.5716,-0.5716,0.012000
0.0680,-0.0311,0.9996,0.2210,0.5640,-0.6631,0.012000
0.0646,-0.0304,0.9978,0.2210,0.5335,-0.5640,0.012000
0.0672,-0.0314,0.9984,0.2820,0.5640,-0.6250,0.012000
0.0672,-0.0325,0.9997,0.4040,0.6402,-0.5869,0.012000
0.0704,-0.0327,0.9969,0.3963,0.6402,-0.5259,0.012000
0.0674,-0.0297,1.0002,0.2820,0.5030,-0.5030,0.012000
0.0681,-0.0297,1.0013,0.3963,0.5183,-0.5869,0.012000
0.0679,-0.0310,0.9999,0.3735,0.5793,-0.5488,0.012000
0.0694,-0.0308,0.9980,0.2668,0.5183,-0.5259,0.012000
0.0682,-0.0313,0.9993,0.3277,0.4954,-0.5640,0.012000
0.0669,-0.0309,0.9975,0.3125,0.5412,-0.5335,0.012000
0.0690,-0.0327,1.0001,0.2591,0.5183,-0.5412,0.012000
0.0687,-0.0330,0.9994,0.3125,0.5259,-0.6098,0.012000
0.0662,-0.0316,0.9990,0.3354,0.6250,-0.5640,0.012000
0.0675,-0.0302,1.0004,0.3811,0.6098,-0.5564,0.012000
0.0667,-0.0291,1.0008,0.3430,0.5335,-0.5869,0.012000
0.0663,-0.0308,1.0001,0.3582,0.5640,-0.5335,0.012000
0.0670,-0.0317,1.0009,0.2515,0.5259,-0.5335,0.012000
0.0660,-0.0317,1.0013,0.3201,0.5259,-0.4726,0.012000
0.0677,-0.0311,1.0024,0.2591,0.5945,-0.5259,0.012000
0.0684,-0.0314,0.9980,0.2668,0.6098,-0.6326,0.012000
0.0678,-0.0317,0.9978,0.2820,0.5259,-0.5945,0.012000
0.0712,-0.0318,0.9996,0.2515,0.5716,-0.5259,0.012000
0.0698,-0.0314,0.9988,0.2668,0.6555,-0.5107,0.012000
0.0670,-0.0321,0.9996,0.2668,0.5107,-0.5716,0.012000
0.0664,-0.0289,1.0002,0.3277,0.4954,-0.5640,0.012000
0.0630,-0.0299,0.9991,0.3430,0.5412,-0.5259,0.012000
0.0654,-0.0288,1.0004,0.3735,0.5564,-0.5564,0.012000
0.0657,-0.0293,0.9996,0.2973,0.6250,-0.6174,0.012000
0.0683,-0.0312,1.0017,0.3354,0.6098,-0.5945,0.012000
0.0688,-0.0320,0.9981,0.4421,0.6555,-0.5869,0.012000
0.0678,-0.0330,0.9997,0.3735,0.5564,-0.5716,0.012000
0.0690,-0.0333,1.0007,0.2439,0.5716,-0.6021,0.012000
0.0685,-0.0314,1.0001,0.2591,0.6707,-0.5945,0.012000
0.0651,-0.0327,0.9988,0.2439,0.5183,-0.5107,0.012000
0.0665,-0.0316,1.0001,0.2744,0.6250,-0.5107,0.012000
0.0675,-0.0287,1.0008,0.2744,0.6784,-0.5716,0.012000
0.0682,-0.0292,0.9987,0.3506,0.5793,-0.5488,0.012000
0.0676,-0.0296,0.9990,0.3659,0.5488,-0.5259,0.012000
0.0679,-0.0306,1.0023,0.3811,0.5030,-0.6402,0.012000
0.0674,-0.0319,1.0014,0.2363,0.5640,-0.5412,0.012000
0.0686,-0.0316,1.0020,0.2896,0.5335,-0.4802,0.012000
0.0682,-0.0320,0.9999,0.4345,0.6098,-0.6174,0.012000
0.0673,-0.0319,0.9985,0.2363,0.5869,-0.6174,0.012000
0.0668,-0.0312,1.0004,0.3963,0.6174,-0.5564,0.012000
0.0668,-0.0295,0.9999,0.2896,0.6021,-0.5335,0.012000
0.0656,-0.0284,1.0004,0.3125,0.5716,-0.5335,0.012000
0.0668,-0.0295,1.0009,0.3277,0.5412,-0.5412,0.012000
0.0681,-0.0314,1.0004,0.2591,0.6326,-0.5640,0.012000
0.0697,-0.0327,1.0009,0.2896,0.6326,-0.5716,0.012000
0.0697,-0.0326,0.9995,0.2744,0.6707,-0.5183,0.012000
0.0667,-0.0308,1.0004,0.2744,0.6098,-0.5716,0.012000
0.0669,-0.0291,0.9998,0.2973,0.5945,-0.5793,0.012000
0.0668,-0.0305,1.0021,0.3582,0.6326,-0.5183,0.012000
0.0685,-0.0293,0.9983,0.3201,0.6326,-0.6021,0.012000
0.0679,-0.0292,0.9985,0.2058,0.6479,-0.5488,0.012000
0.0690,-0.0320,0.9973,0.2287,0.7165,-0.5716,0.012000
0.0696,-0.0309,0.9994,0.2591,0.7851,-0.5488,0.012000
0.0667,-0.0308,1.0016,0.1143,0.7470,-0.5869,0.012000
0.0687,-0.0321,0.9973,0.2287,0.6860,-0.4878,0.012000
0.0679,-0.0311,0.9988,0.1829,0.6250,-0.5412,0.012000
0.0684,-0.0319,1.0017,0.2058,0.6784,-0.5412,0.012000
0.0702,-0.0304,0.9970,0.4040,0.6250,-0.5030,0.012000
0.0667,-0.0304,1.0013,0.3735,0.5488,-0.4649,0.012000
0.0616,-0.0461,0.9997,0.0534,0.4497,1.5168,0.012000
0.0628,-0.0375,0.9982,0.5640,0.5030,7.7820,0.012000
0.0634,-0.0228,0.9965,1.0137,0.4040,11.6387,0.012000
0.0720,-0.0209,1.0019,0.6021,0.3430,11.5015,0.012000
0.0682,-0.0329,1.0002,0.6707,0.4040,7.9954,0.012000
0.0670,-0.0307,0.9973,0.7088,0.3887,8.4223,0.012000
0.0714,-0.0330,0.9990,0.4878,0.2668,8.7500,0.012000
0.0662,-0.0336,1.0015,0.6784,0.3049,8.7119,0.012000
0.0656,-0.0309,0.9995,0.4954,0.3963,8.6433,0.012000
0.0690,-0.0297,1.0000,0.5259,0.3125,8.3232,0.012000
0.0701,-0.0275,0.9998,0.6098,0.4726,7.4009,0.012000
0.0676,-0.0276,1.0010,0.4268,0.4421,5.3963,0.012000
0.0690,-0.0313,1.0016,0.2668,0.5030,3.4223,0.012000
0.0688,-0.0303,0.9980,0.4040,0.5412,1.6616,0.012000
0.0677,-0.0323,1.0013,0.3430,0.6174,-0.6707,0.012000
0.0682,-0.0320,1.0001,0.3125,0.6098,-0.5564,0.012000
0.0687,-0.0309,1.0017,0.3582,0.6479,-0.4954,0.012000
0.0685,-0.0324,1.0015,0.3049,0.6098,-0.4954,0.012000
0.0672,-0.0309,1.0005,0.2515,0.6098,-0.6174,0.012000
0.0656,-0.0316,0.9998,0.2363,0.5564,-0.5716,0.012000
0.0668,-0.0305,1.0012,0.2820,0.4878,-0.5793,0.012000
0.0652,-0.0310,0.9990,0.2515,0.6250,-0.5869,0.012000
0.0681,-0.0323,0.9998,0.2744,0.6326,-0.5716,0.012000
0.0693,-0.0329,1.0012,0.3354,0.5793,-0.5107,0.012000
0.0684,-0.0337,0.9975,0.2439,0.5945,-0.5869,0.012000
0.0687,-0.0331,1.0005,0.3354,0.5793,-0.5716,0.012000
0.0670,-0.0317,1.0009,0.2820,0.5183,-0.4726,0.012000
0.0655,-0.0299,1.0013,0.2363,0.5869,-0.4878,0.012000
0.0661,-0.0297,1.0008,0.3354,0.5869,-0.5183,0.012000
0.0671,-0.0306,0.9988,0.3049,0.6250,-0.5412,0.012000
0.0649,-0.0321,0.9989,0.3049,0.6631,-0.5869,0.012000
0.0682,-0.0311,1.0001,0.2515,0.6098,-0.5869,0.012000
0.0659,-0.0316,1.0005,0.2744,0.5030,-0.5869,0.012000
0.0689,-0.0315,1.0002,0.1905,0.5564,-0.5945,0.012000
0.0690,-0.0319,0.9995,0.2363,0.5564,-0.5793,0.012000
0.0685,-0.0320,0.9973,0.3659,0.6250,-0.5945,0.012000
0.0652,-0.0320,0.9993,0.3201,0.5564,-0.6021,0.012000
0.0664,-0.0292,0.9983,0.2134,0.5412,-0.5335,0.012000
0.0656,-0.0306,1.0010,0.3659,0.5183,-0.5335,0.012000
0.0651,-0.0311,1.0018,0.2744,0.5335,-0.5640,0.012000
0.0662,-0.0298,1.0013,0.3201,0.5259,-0.5793,0.012000
0.0676,-0.0308,1.0015,0.2820,0.5869,-0.5259,0.012000
0.0714,-0.0328,1.0015,0.2210,0.5716,-0.4954,0.012000
0.0670,-0.0326,1.0011,0.3582,0.5030,-0.5716,0.012000
0.0681,-0.0323,1.0014,0.2363,0.4802,-0.5335,0.012000
0.0679,-0.0312,1.0010,0.2820,0.6174,-0.5488,0.012000
0.0673,-0.0302,0.9995,0.3049,0.6402,-0.5945,0.012000
0.0676,-0.0319,0.9998,0.2820,0.5640,-0.5869,0.012000
0.0652,-0.0302,1.0016,0.3125,0.4649,-0.5564,0.012000
0.0675,-0.0307,1.0020,0.2820,0.4649,-0.5488,0.012000
0.0676,-0.0298,1.0007,0.2896,0.5945,-0.5640,0.012000
0.0678,-0.0318,1.0000,0.3201,0.6174,-0.5869,0.012000
0.0670,-0.0316,0.9986,0.3125,0.5716,-0.6402,0.012000
0.0679,-0.0344,0.9993,0.2363,0.5945,-0.6250,0.012000
0.0645,-0.0320,1.0001,0.2820,0.5793,-0.5716,0.012000
0.0685,-0.0318,1.0006,0.3201,0.5869,-0.5107,0.012000
0.0678,-0.0302,1.0010,0.3887,0.5869,-0.5716,0.012000
0.0660,-0.0310,1.0009,0.2439,0.6174,-0.5107,0.012000
0.0669,-0.0307,1.0021,0.3125,0.5716,-0.4726,0.012000
0.0697,-0.0312,1.0010,0.3049,0.6098,-0.6326,0.012000
0.0667,-0.0328,0.9972,0.2668,0.6021,-0.5335,0.012000
0.0671,-0.0316,0.9988,0.2744,0.5564,-0.5030,0.012000
0.0676,-0.0308,0.9997,0.1982,0.5412,-0.5564,0.012000
0.0677,-0.0322,0.9999,0.2515,0.5335,-0.6250,0.012000
0.0681,-0.0303,0.9994,0.3201,0.5564,-0.5107,0.012000
0.0677,-0.0308,0.9984,0.3125,0.5793,-0.5945,0.012000
0.0661,-0.0312,0.9983,0.3354,0.5640,-0.5335,0.012000
0.0669,-0.0297,0.9999,0.2744,0.5488,-0.6021,0.012000
0.0676,-0.0322,0.9987,0.2820,0.5030,-0.5869,0.012000
0.0657,-0.0323,0.9990,0.2363,0.5183,-0.4802,0.012000
0.0682,-0.0311,1.0009,0.1143,0.4878,-0.4954,0.012000
0.0671,-0.0323,0.9997,0.2515,0.6021,-0.5640,0.012000
0.0685,-0.0306,0.9993,0.3506,0.6250,-0.5488,0.012000
0.0674,-0.0306,0.9997,0.4268,0.6555,-0.6555,0.012000
0.0663,-0.0311,0.9996,0.3049,0.6021,-0.5335,0.012000
0.0663,-0.0307,1.0001,0.3354,0.6174,-0.5183,0.012000
0.0652,-0.0299,1.0008,0.3277,0.5716,-0.5716,0.012000
0.0666,-0.0294,1.0015,0.1905,0.6174,-0.5869,0.012000
0.0656,-0.0323,1.0016,0.3125,0.6174,-0.5869,0.012000
0.0691,-0.0314,0.9996,0.2515,0.5259,-0.6021,0.012000
0.0674,-0.0306,0.9977,0.2896,0.5107,-0.5869,0.012000
0.0677,-0.0326,1.0004,0.2287,0.5488,-0.5564,0.012000
0.0681,-0.0337,1.0009,0.2744,0.5183,-0.5259,0.012000
0.0671,-0.0312,0.9997,0.2591,0.6860,-0.5488,0.012000
0.0664,-0.0310,0.9982,0.2973,0.6021,-0.5716,0.012000
0.0681,-0.0323,0.9990,0.3506,0.4802,-0.5488,0.012000
0.0676,-0.0305,1.0001,0.2820,0.5945,-0.5488,0.012000
0.0682,-0.0319,1.0001,0.3582,0.5107,-0.5183,0.012000
0.0661,-0.0340,0.9987,0.2744,0.4726,-0.5107,0.012000
0.0670,-0.0318,1.0004,0.2896,0.5107,-0.5488,0.012000
0.0696,-0.0319,1.0023,0.3277,0.5488,-0.6174,0.012000
0.0657,-0.0302,0.9986,0.3582,0.5793,-0.5183,0.012000
0.0684,-0.0319,0.9987,0.3354,0.6098,-0.6174,0.012000
0.0674,-0.0308,0.9979,0.3201,0.5869,-0.5716,0.012000
0.0663,-0.0298,1.0008,0.2820,0.5793,-0.5107,0.012000
0.0667,-0.0303,0.9964,0.3277,0.5564,-0.5030,0.012000
0.0690,-0.0324,0.9978,0.2058,0.6021,-0.5716,0.012000
0.0670,-0.0320,0.9980,0.2896,0.5412,-0.5869,0.012000
0.0683,-0.0316,0.9992,0.2668,0.5488,-0.5335,0.012000
0.0691,-0.0312,0.9999,0.2820,0.5488,-0.5259,0.012000
0.0672,-0.0333,1.0009,0.2896,0.6174,-0.5488,0.012000
0.0648,-0.0309,0.9998,0.2973,0.6174,-0.5488,0.012000
0.0659,-0.0313,0.9990,0.3125,0.5869,-0.5412,0.012000
0.0682,-0.0316,0.9999,0.3277,0.5793,-0.5259,0.012000
0.0666,-0.0318,0.9987,0.2058,0.5869,-0.5945,0.012000
0.0655,-0.0306,1.0028,0.3201,0.6021,-0.5259,0.012000
0.0674,-0.0312,0.9999,0.2591,0.5869,-0.4421,0.012000
0.0667,-0.0308,0.9982,0.2668,0.5640,-0.6250,0.012000
0.0648,-0.0325,0.9995,0.3125,0.5488,-0.6784,0.012000
0.0661,-0.0324,0.9987,0.2134,0.5640,-0.5412,0.012000
0.0660,-0.0309,0.9984,0.3201,0.5030,-0.5945,0.012000
0.0670,-0.0309,0.9984,0.2591,0.5335,-0.5107,0.012000
0.0670,-0.0313,1.0009,0.2668,0.5945,-0.5640,0.012000
0.0688,-0.0312,1.0020,0.2820,0.5716,-0.5107,0.012000
0.0652,-0.0299,0.9984,0.2439,0.5183,-0.5412,0.012000
0.0693,-0.0325,0.9995,0.2896,0.5259,-0.5183,0.012000
0.0668,-0.0317,0.9985,0.3277,0.6555,-0.6250,0.012000
0.0684,-0.0320,0.9995,0.2287,0.6250,-0.5259,0.012000
0.0691,-0.0319,1.0012,0.3659,0.5183,-0.5640,0.012000
0.0666,-0.0323,1.0008,0.3277,0.5183,-0.5945,0.012000
0.0668,-0.0315,1.0009,0.2744,0.6174,-0.6402,0.012000
0.0668,-0.0326,1.0022,0.3201,0.5488,-0.5107,0.012000
0.0676,-0.0308,1.0000,0.2668,0.6021,-0.4802,0.012000
0.0646,-0.0295,0.9982,0.3582,0.6479,-0.5945,0.012000
0.0689,-0.0320,1.0001,0.3201,0.5259,-0.5488,0.012000
0.0669,-0.0309,1.0005,0.3887,0.6021,-0.5564,0.012000
0.0674,-0.0317,1.0011,0.2668,0.5259,-0.5335,0.012000
0.0685,-0.0330,0.9999,0.2287,0.4878,-0.5564,0.012000
0.0693,-0.0327,1.0008,0.3049,0.6174,-0.5335,0.012000
0.0665,-0.0320,0.9995,0.3201,0.6021,-0.5869,0.012000
0.0673,-0.0310,0.9995,0.2134,0.6250,-0.5412,0.012000
0.0659,-0.0299,0.9985,0.2363,0.5488,-0.5793,0.012000
0.0685,-0.0308,0.9985,0.3201,0.5564,-0.5412,0.012000
0.0674,-0.0305,1.0002,0.2134,0.6174,-0.6098,0.012000
0.0654,-0.0308,0.9999,0.2820,0.5716,-0.5564,0.012000
0.0682,-0.0319,1.0003,0.2287,0.5488,-0.5869,0.012000
0.0664,-0.0331,1.0000,0.2591,0.5107,-0.5259,0.012000
0.0674,-0.0302,0.9996,0.2973,0.5412,-0.5030,0.012000
0.0690,-0.0322,0.9999,0.3887,0.5640,-0.5564,0.012000
0.0663,-0.0310,0.9995,0.2210,0.6479,-0.6326,0.012000
0.0669,-0.0309,0.9990,0.3201,0.6555,-0.6784,0.012000
0.0659,-0.0303,0.9974,0.3430,0.6326,-0.5259,0.012000
0.0674,-0.0314,1.0002,0.4116,0.6098,-0.5412,0.012000
0.0681,-0.0326,1.0010,0.2363,0.5412,-0.6098,0.012000
0.0663,-0.0312,1.0004,0.3659,0.4954,-0.6021,0.012000
0.0659,-0.0313,0.9993,0.3659,0.5107,-0.5107,0.012000
0.0681,-0.0301,0.9985,0.3430,0.5793,-0.5030,0.012000
0.0675,-0.0338,0.9989,0.3125,0.5412,-0.6326,0.012000
0.0672,-0.0323,1.0013,0.1524,0.5030,-0.5412,0.012000
0.0665,-0.0323,0.9973,0.3354,0.6250,-0.6174,0.012000
0.0659,-0.0311,1.0009,0.3811,0.5869,-0.6174,0.012000
0.0658,-0.0311,1.0018,0.3354,0.5640,-0.5716,0.012000
0.0672,-0.0311,1.0006,0.3582,0.4726,-0.5488,0.012000
0.0662,-0.0309,0.9983,0.2744,0.6250,-0.5335,0.012000
0.0685,-0.0309,1.0004,0.3201,0.6402,-0.6098,0.012000
0.0710,-0.0319,0.9999,0.2363,0.6326,-0.5945,0.012000
0.0682,-0.0326,0.9984,0.3125,0.5640,-0.6479,0.012000
0.0679,-0.0323,1.0001,0.2973,0.5412,-0.5793,0.012000
0.0678,-0.0313,0.9991,0.2896,0.6098,-0.5412,0.012000
0.0675,-0.0300,0.9991,0.3277,0.5412,-0.5030,0.012000
0.0695,-0.0312,0.9985,0.2210,0.5412,-0.6555,0.012000
0.0678,-0.0326,1.0015,0.2668,0.6098,-0.5564,0.012000
0.0662,-0.0314,1.0015,0.3125,0.5945,-0.5107,0.012000
0.0670,-0.0316,0.9999,0.3277,0.5564,-0.5335,0.012000
0.0660,-0.0330,0.9985,0.3354,0.6174,-0.5259,0.012000
0.0668,-0.0322,0.9998,0.3277,0.6098,-0.5259,0.012000
0.0654,-0.0320,0.9999,0.2058,0.5030,-0.4878,0.012000
0.0667,-0.0331,1.0020,0.3049,0.6021,-0.5335,0.012000
0.0655,-0.0302,1.0009,0.2896,0.4878,-0.5869,0.012000
0.0656,-0.0300,0.9979,0.3049,0.5716,-0.5640,0.012000
0.0682,-0.0305,1.0001,0.3049,0.6250,-0.6021,0.012000
0.0671,-0.0299,1.0022,0.2896,0.6402,-0.5259,0.012000
0.0681,-0.0308,0.9993,0.2515,0.5945,-0.4573,0.012000
0.0665,-0.0328,1.0023,0.2973,0.5030,-0.5945,0.012000
0.0673,-0.0329,1.0010,0.2973,0.5183,-0.6098,0.012000
0.0652,-0.0317,0.9996,0.2973,0.5335,-0.6098,0.012000
0.0673,-0.0308,1.0016,0.3582,0.5107,-0.5640,0.012000
0.0685,-0.0316,1.0001,0.2591,0.5716,-0.5564,0.012000
0.0674,-0.0303,1.0007,0.1601,0.5564,-0.5564,0.012000
0.0663,-0.0320,0.9991,0.2591,0.5564,-0.5793,0.012000
0.0656,-0.0310,0.9999,0.3659,0.6021,-0.5945,0.012000
0.0646,-0.0319,1.0002,0.2668,0.6250,-0.5945,0.012000
0.0692,-0.0322,1.0004,0.2515,0.5564,-0.6098,0.012000
0.0668,-0.0306,1.0013,0.3125,0.5640,-0.5564,0.012000
0.0680,-0.0325,1.0010,0.2973,0.5564,-0.5030,0.012000
0.0680,-0.0320,1.0007,0.2820,0.5869,-0.5716,0.012000
0.0668,-0.0318,0.9991,0.2896,0.5945,-0.6021,0.012000
0.0674,-0.0320,0.9994,0.2287,0.6098,-0.6555,0.012000
0.0684,-0.0317,0.9992,0.2210,0.5945,-0.6098,0.012000
0.0668,-0.0298,0.9999,0.2515,0.5259,-0.5412,0.012000
0.0665,-0.0308,0.9982,0.3201,0.4573,-0.5030,0.012000
0.0662,-0.0328,0.9992,0.2973,0.5335,-0.5564,0.012000
0.0659,-0.0329,1.0008,0.3430,0.5716,-0.5183,0.012000
0.0681,-0.0313,0.9991,0.4116,0.5488,-0.5716,0.012000
0.0671,-0.0315,0.9996,0.2134,0.5107,-0.6555,0.012000
0.0672,-0.0331,0.9998,0.2363,0.5030,-0.6631,0.012000
0.0670,-0.0320,0.9991,0.3506,0.5945,-0.5183,0.012000
0.0649,-0.0309,0.9965,0.3049,0.5488,-0.5869,0.012000
0.0636,-0.0312,0.9977,0.3354,0.5564,-0.5335,0.012000
0.0665,-0.0303,0.9974,0.2973,0.5640,-0.5412,0.012000
0.0662,-0.0304,0.9981,0.1829,0.5564,-0.5793,0.012000
0.0686,-0.0345,1.0005,0.3506,0.4649,-0.5412,0.012000
0.0680,-0.0324,1.0013,0.2591,0.5869,-0.5183,0.012000
0.0698,-0.0298,0.9999,0.2363,0.5488,-0.6021,0.012000
0.0682,-0.0306,1.0001,0.3430,0.5564,-0.5716,0.012000
0.0660,-0.0327,1.0001,0.4497,0.5640,-0.5564,0.012000
0.0649,-0.0314,0.9996,0.3506,0.5869,-0.6098,0.012000
0.0687,-0.0327,0.9999,0.2896,0.5716,-0.5945,0.012000
0.0671,-0.0314,0.9989,0.3430,0.5793,-0.5716,0.012000
0.0664,-0.0320,1.0021,0.3735,0.5945,-0.5107,0.012000
0.0651,-0.0317,0.9991,0.3582,0.5640,-0.6098,0.012000
0.0667,-0.0302,1.0018,0.2591,0.4802,-0.5183,0.012000
0.0692,-0.0292,1.0003,0.2668,0.5335,-0.5183,0.012000
0.0691,-0.0297,0.9991,0.2744,0.5564,-0.6174,0.012000
0.0681,-0.0322,0.9993,0.2058,0.5716,-0.5488,0.012000
0.0690,-0.0325,0.9986,0.2210,0.6021,-0.5640,0.012000
0.0654,-0.0319,1.0005,0.2668,0.5488,-0.5716,0.012000
0.0645,-0.0306,0.9991,0.2820,0.5335,-0.5793,0.012000
0.0670,-0.0308,0.9988,0.2820,0.5945,-0.5945,0.012000
0.0675,-0.0304,1.0007,0.3506,0.5945,-0.5793,0.012000
0.0681,-0.0321,0.9995,0.3735,0.6326,-0.5869,0.012000
0.0664,-0.0314,1.0007,0.2973,0.5564,-0.5640,0.012000
0.0672,-0.0319,1.0016,0.3201,0.5640,-0.5640,0.012000
0.0679,-0.0325,1.0004,0.2896,0.5564,-0.5945,0.012000
0.0662,-0.0317,1.0006,0.2896,0.5183,-0.4954,0.012000
0.0682,-0.0303,0.9996,0.2287,0.4802,-0.6402,0.012000
0.0676,-0.0325,0.9993,0.2668,0.5564,-0.5640,0.012000
0.0671,-0.0315,1.0009,0.3049,0.4345,-0.5183,0.012000
0.0711,-0.0306,0.9985,0.2820,0.5488,-0.5335,0.012000
0.0687,-0.0308,0.9982,0.2896,0.6784,-0.5335,0.012000
0.0658,-0.0311,1.0006,0.2820,0.5869,-0.5640,0.012000
0.0678,-0.0319,1.0007,0.2515,0.5564,-0.5945,0.012000
0.0677,-0.0323,0.9995,0.2591,0.5793,-0.5716,0.012000
0.0682,-0.0322,0.9989,0.2515,0.5564,-0.5945,0.012000
0.0691,-0.0327,0.9991,0.3277,0.5335,-0.5259,0.012000
0.0682,-0.0300,1.0001,0.3659,0.6021,-0.5488,0.012000
0.0654,-0.0309,0.9999,0.3354,0.5945,-0.5869,0.012000
0.0661,-0.0307,0.9996,0.2591,0.5793,-0.5488,0.012000
0.0692,-0.0316,1.0006,0.2210,0.5335,-0.5564,0.012000
0.0687,-0.0317,0.9988,0.2744,0.5183,-0.5335,0.012000
0.0675,-0.0327,1.0015,0.2896,0.5488,-0.5412,0.012000
0.0660,-0.0320,0.9995,0.2363,0.5869,-0.5640,0.012000
0.0675,-0.0326,0.9988,0.3049,0.6250,-0.6174,0.012000
0.0670,-0.0310,1.0000,0.3277,0.5412,-0.5869,0.012000
0.0662,-0.0291,0.9986,0.2134,0.5412,-0.5564,0.012000
0.0685,-0.0316,0.9998,0.3354,0.5716,-0.5869,0.012000
0.0684,-0.0321,1.0001,0.2210,0.5335,-0.5640,0.012000
0.0696,-0.0322,1.0014,0.2973,0.5640,-0.6021,0.012000
0.0679,-0.0317,0.9990,0.3506,0.6174,-0.4954,0.012000
0.0670,-0.0333,1.0010,0.2210,0.6098,-0.6250,0.012000
0.0712,-0.0320,0.9987,0.2668,0.5640,-0.5716,0.012000
0.0706,-0.0317,0.9991,0.2896,0.5869,-0.5259,0.012000
0.0690,-0.0318,1.0012,0.2287,0.6021,-0.5030,0.012000
0.0688,-0.0303,1.0002,0.3354,0.6402,-0.5259,0.012000
0.0677,-0.0296,0.9994,0.2591,0.6479,-0.4878,0.012000
0.0670,-0.0309,0.9998,0.2668,0.5640,-0.5869,0.012000
0.0662,-0.0313,1.0009,0.1524,0.5183,-0.6174,0.012000
0.0648,-0.0323,0.9999,0.2744,0.5259,-0.5945,0.012000
0.0670,-0.0333,1.0029,0.2896,0.5869,-0.5107,0.012000
0.0684,-0.0325,1.0008,0.2744,0.5259,-0.5793,0.012000
0.0676,-0.0308,0.9985,0.3582,0.5259,-0.5716,0.012000
0.0663,-0.0302,0.9987,0.3201,0.5335,-0.5030,0.012000
0.0662,-0.0317,1.0004,0.2591,0.5945,-0.5412,0.012000
0.0667,-0.0322,1.0008,0.1982,0.5716,-0.5488,0.012000
0.0672,-0.0317,0.9993,0.2591,0.5107,-0.5869,0.012000
0.0674,-0.0311,0.9990,0.3277,0.6021,-0.5716,0.012000
0.0681,-0.0314,0.9998,0.2973,0.6098,-0.5412,0.012000
0.0673,-0.0310,0.9995,0.3049,0.6021,-0.6402,0.012000
0.0674,-0.0292,1.0023,0.2744,0.5945,-0.5716,0.012000
0.0674,-0.0316,0.9987,0.2591,0.5335,-0.5869,0.012000
0.0688,-0.0327,0.9986,0.2668,0.4954,-0.6402,0.012000
0.0691,-0.0317,1.0010,0.1524,0.5259,-0.5716,0.012000
0.0690,-0.0311,1.0000,0.1905,0.5107,-0.5793,0.012000
0.0671,-0.0311,1.0018,0.2515,0.4954,-0.5640,0.012000
0.0652,-0.0306,0.9991,0.2973,0.5793,-0.4726,0.012000
0.0660,-0.0324,0.9992,0.2515,0.5488,-0.5640,0.012000
0.0670,-0.0308,1.0001,0.2134,0.4878,-0.5640,0.012000
0.0692,-0.0340,0.9991,0.2515,0.5259,-0.6174,0.012000
0.0668,-0.0304,1.0010,0.2744,0.6021,-0.5259,0.012000
0.0680,-0.0320,1.0003,0.2591,0.6402,-0.5259,0.012000
0.0679,-0.0310,0.9979,0.2134,0.5564,-0.5869,0.012000
0.0645,-0.0302,0.9988,0.2668,0.5335,-0.6174,0.012000
0.0667,-0.0319,1.0021,0.3582,0.5412,-0.5335,0.012000
0.0684,-0.0298,1.0016,0.2668,0.5488,-0.5640,0.012000
0.0679,-0.0306,1.0015,0.2973,0.5869,-0.5030,0.012000
0.0684,-0.0316,1.0005,0.3811,0.5793,-0.5869,0.012000
0.0659,-0.0309,1.0002,0.4040,0.5030,-0.6021,0.012000
0.0674,-0.0316,1.0014,0.4421,0.5259,-0.5335,0.012000
0.0670,-0.0298,1.0008,0.1829,0.6479,-0.6098,0.012000
0.0669,-0.0308,0.9996,0.3125,0.5640,-0.6250,0.012000
0.0690,-0.0316,0.9998,0.3887,0.5869,-0.5488,0.012000
0.0681,-0.0322,0.9996,0.3430,0.6250,-0.5640,0.012000
0.0681,-0.0296,0.9988,0.3430,0.5716,-0.5716,0.012000
0.0652,-0.0310,0.9998,0.1524,0.5564,-0.5335,0.012000
0.0670,-0.0316,0.9993,0.2896,0.6098,-0.4726,0.012000
0.0673,-0.0303,0.9998,0.3506,0.5640,-0.4649,0.012000
0.0685,-0.0289,1.0009,0.2744,0.5640,-0.5716,0.012000
0.0652,-0.0319,0.9999,0.2515,0.5869,-0.5945,0.012000
0.0660,-0.0328,0.9998,0.2515,0.5412,-0.5335,0.012000
0.0653,-0.0316,1.0012,0.2363,0.4954,-0.6098,0.012000
0.0683,-0.0336,1.0015,0.2668,0.5793,-0.4726,0.012000
0.0671,-0.0325,0.9988,0.2820,0.5716,-0.6098,0.012000
0.0683,-0.0316,0.9991,0.4040,0.6174,-0.5259,0.012000
0.0689,-0.0316,0.9994,0.1905,0.4573,-0.4878,0.012000
0.0687,-0.0322,0.9991,0.2439,0.5030,-0.6555,0.012000
0.0666,-0.0288,0.9987,0.3049,0.5793,-0.6098,0.012000
0.0668,-0.0316,0.9983,0.3430,0.5412,-0.5183,0.012000
0.0680,-0.0318,0.9990,0.2287,0.5564,-0.5107,0.012000
0.0677,-0.0317,0.9988,0.3735,0.6098,-0.5640,0.012000
0.0683,-0.0316,0.9981,0.2973,0.5259,-0.5335,0.012000
0.0681,-0.0322,0.9988,0.3354,0.5107,-0.6021,0.012000
0.0705,-0.0328,1.0015,0.3277,0.5412,-0.5793,0.012000
0.0657,-0.0302,1.0010,0.3582,0.5564,-0.5793,0.012000
0.0673,-0.0298,1.0007,0.3430,0.5335,-0.5412,0.012000
0.0671,-0.0308,0.9989,0.2668,0.6174,-0.5412,0.012000
0.0664,-0.0311,0.9999,0.1829,0.5869,-0.5716,0.012000
0.0675,-0.0331,1.0003,0.1829,0.5259,-0.5869,0.012000
0.0674,-0.0317,0.9997,0.3430,0.5869,-0.5716,0.012000
0.0670,-0.0311,1.0000,0.2210,0.5640,-0.5488,0.012000
0.0677,-0.0308,1.0005,0.2439,0.5564,-0.5488,0.012000
0.0690,-0.0306,1.0013,0.3354,0.5412,-0.6402,0.012000
0.0648,-0.0313,1.0010,0.2287,0.5716,-0.5488,0.012000
0.0664,-0.0319,0.9995,0.2363,0.6479,-0.6021,0.012000
0.0660,-0.0309,1.0013,0.2973,0.6174,-0.6174,0.012000
0.0667,-0.0324,0.9981,0.3201,0.6021,-0.6174,0.012000
0.0657,-0.0317,1.0009,0.2439,0.6098,-0.6860,0.012000
0.0679,-0.0307,1.0012,0.2820,0.6098,-0.5564,0.012000
0.0663,-0.0300,1.0012,0.2896,0.5793,-0.5335,0.012000
0.0680,-0.0312,0.9987,0.2439,0.5488,-0.5412,0.012000
0.0673,-0.0310,0.9988,0.2287,0.4649,-0.5640,0.012000
0.0660,-0.0297,1.0015,0.2973,0.5107,-0.4878,0.012000
0.0662,-0.0320,0.9987,0.2439,0.5793,-0.5412,0.012000
0.0682,-0.0308,0.9988,0.2973,0.5412,-0.6250,0.012000
0.0676,-0.0303,1.0009,0.2744,0.6250,-0.5716,0.012000
0.0687,-0.0308,0.9991,0.2439,0.5412,-0.5335,0.012000
0.0688,-0.0333,1.0006,0.2363,0.5335,-0.6174,0.012000
0.0654,-0.0296,0.9993,0.2973,0.6250,-0.6174,0.012000
0.0658,-0.0297,1.0010,0.2668,0.6021,-0.5564,0.012000
0.0662,-0.0331,0.9996,0.2363,0.5412,-0.5793,0.012000
0.0677,-0.0320,1.0019,0.2439,0.5183,-0.5412,0.012000
0.0662,-0.0308,1.0007,0.3049,0.5488,-0.5564,0.012000
0.0665,-0.0323,0.9990,0.2515,0.6021,-0.5945,0.012000
0.0672,-0.0317,1.0021,0.2744,0.4802,-0.5640,0.012000
0.0686,-0.0298,1.0001,0.2896,0.4421,-0.5259,0.012000
0.0678,-0.0300,1.0007,0.2896,0.5640,-0.6174,0.012000
0.0678,-0.0344,0.9979,0.3506,0.5793,-0.5488,0.012000
0.0667,-0.0319,0.9985,0.3277,0.6174,-0.5107,0.012000
0.0681,-0.0309,1.0015,0.3659,0.5716,-0.5335,0.012000
0.0672,-0.0327,1.0009,0.2439,0.5107,-0.5259,0.012000
0.0665,-0.0317,0.9981,0.3506,0.5488,-0.5183,0.012000
0.0660,-0.0330,0.9982,0.2515,0.6250,-0.5335,0.012000
0.0679,-0.0320,0.9969,0.2363,0.5716,-0.5793,0.012000
0.0681,-0.0319,0.9995,0.2134,0.5488,-0.5716,0.012000
0.0696,-0.0309,0.9980,0.2439,0.6021,-0.5716,0.012000
0.0687,-0.0294,1.0012,0.1905,0.6250,-0.5183,0.012000
0.0671,-0.0312,1.0001,0.3277,0.5716,-0.5259,0.012000
0.0684,-0.0317,0.9971,0.2134,0.6098,-0.5640,0.012000
0.0682,-0.0355,0.9996,0.2439,0.5564,-0.5716,0.012000
0.0667,-0.0325,0.9995,0.2896,0.5640,-0.5869,0.012000
0.0692,-0.0319,0.9988,0.2744,0.6402,-0.5945,0.012000
0.0681,-0.0298,1.0007,0.3049,0.7165,-0.5030,0.012000
0.0653,-0.0300,0.9985,0.2744,0.6402,-0.5107,0.012000
0.0655,-0.0300,0.9977,0.3582,0.6555,-0.5640,0.012000
0.0668,-0.0311,1.0019,0.2744,0.5793,-0.6021,0.012000
0.0700,-0.0331,1.0005,0.2439,0.5716,-0.5793,0.012000
0.0687,-0.0331,0.9998,0.3049,0.4878,-0.5259,0.012000
0.0679,-0.0300,1.0012,0.3125,0.6326,-0.5716,0.012000
0.0653,-0.0307,0.9982,0.1982,0.6936,-0.5335,0.012000
0.0653,-0.0326,1.0009,0.2363,0.6555,-0.6250,0.012000
0.0662,-0.0300,0.9995,0.3201,0.6021,-0.6936,0.012000
0.0666,-0.0301,1.0084,0.5107,0.7774,-0.5183,0.012000
0.0649,-0.0260,0.9854,0.0991,0.7241,-0.4802,0.012000
0.0676,-0.0353,1.0097,0.0534,0.3963,-0.5716,0.012000
0.0660,-0.0294,0.9978,0.5716,0.5488,-0.6174,0.012000
0.0677,-0.0275,0.9908,0.5259,0.7546,-0.5030,0.012000
0.0688,-0.0341,1.0034,0.1982,0.4878,-0.4954,0.012000
0.0659,-0.0339,1.0066,0.3277,0.4954,-0.5716,0.012000
0.0660,-0.0329,0.9996,0.2058,0.8232,-0.5793,0.012000
0.0666,-0.0311,0.9960,0.3659,0.7393,-0.5945,0.012000
0.0697,-0.0311,1.0065,0.2973,0.5564,-0.5335,0.012000
0.0657,-0.0302,0.9987,0.1905,0.6555,-0.6479,0.012000
0.0642,-0.0316,0.9989,0.2134,0.6174,-0.5488,0.012000
0.0660,-0.0311,0.9977,0.2744,0.5183,-0.5640,0.012000
0.0680,-0.0312,1.0048,0.1829,0.5030,-0.5716,0.012000
0.0688,-0.0304,0.9971,0.3506,0.5107,-0.5564,0.012000
0.0684,-0.0347,0.9985,0.3430,0.4726,-0.5640,0.012000
0.0660,-0.0312,1.0018,0.2439,0.6174,-0.5716,0.012000
0.0659,-0.0298,0.9999,0.2134,0.6555,-0.5793,0.012000
0.0694,-0.0292,0.9986,0.3277,0.6174,-0.6021,0.012000
0.0678,-0.0301,1.0014,0.2744,0.5716,-0.4726,0.012000
0.0663,-0.0311,0.9986,0.2820,0.7012,-0.5716,0.012000
0.0663,-0.0337,0.9990,0.2515,0.4726,-0.6098,0.012000
0.0655,-0.0330,1.0002,0.2896,0.5335,-0.6174,0.012000
0.0657,-0.0329,0.9990,0.4268,0.6860,-0.5716,0.012000
0.0682,-0.0303,0.9993,0.2134,0.5335,-0.5564,0.012000
0.0665,-0.0313,1.0026,0.3811,0.5640,-0.5412,0.012000
0.0677,-0.0306,1.0010,0.3582,0.5412,-0.5412,0.012000
0.0673,-0.0282,0.9998,0.2896,0.5793,-0.5412,0.012000
0.0666,-0.0321,1.0027,0.2896,0.5183,-0.5564,0.012000
0.0665,-0.0324,1.0004,0.2210,0.5107,-0.5640,0.012000
0.0679,-0.0311,0.9987,0.2134,0.5412,-0.5183,0.012000
0.0681,-0.0305,0.9984,0.2896,0.5183,-0.5564,0.012000
0.0673,-0.0323,1.0015,0.3125,0.5564,-0.6098,0.012000
0.0698,-0.0358,1.0120,0.2820,0.4726,-0.5793,0.012000
0.0667,-0.0292,0.9926,0.3506,0.6021,-0.5945,0.012000
0.0682,-0.0345,1.0056,0.2134,0.5412,-0.6174,0.012000
0.0642,-0.0266,0.9923,0.6555,0.5259,-0.5716,0.012000
0.0696,-0.0347,1.0116,0.0838,0.4345,-0.5412,0.012000
0.0706,-0.0318,0.9991,0.0915,0.5640,-0.5335,0.012000
0.0687,-0.0307,1.0021,0.4116,0.5793,-0.5869,0.012000
0.0678,-0.0312,1.0009,0.1677,0.5716,-0.5640,0.012000
0.0698,-0.0322,1.0018,0.2439,0.7241,-0.5716,0.012000
0.0676,-0.0303,0.9956,0.3887,0.6479,-0.5640,0.012000
0.0679,-0.0319,0.9979,0.3049,0.7088,-0.5716,0.012000
0.0679,-0.0335,1.0032,0.2668,0.7012,-0.6021,0.012000
0.0643,-0.0308,0.9931,0.2896,0.6098,-0.6250,0.012000
0.0654,-0.0340,1.0071,0.3506,0.5030,-0.5107,0.012000
0.0671,-0.0290,0.9971,0.4345,0.5335,-0.5412,0.012000
0.0652,-0.0291,0.9966,0.3430,0.5488,-0.6174,0.012000
0.0669,-0.0317,1.0012,0.2363,0.5945,-0.5412,0.012000
0.0660,-0.0314,0.9982,0.2287,0.6555,-0.5945,0.012000
0.0666,-0.0335,0.9997,0.1677,0.5793,-0.5716,0.012000
0.0677,-0.0303,0.9944,0.2363,0.5259,-0.6174,0.012000
0.0693,-0.0349,1.0039,0.1601,0.4649,-0.5412,0.012000
0.0673,-0.0263,1.0002,0.4268,0.5716,-0.6098,0.012000
0.0673,-0.0307,1.0017,0.1067,0.5640,-0.6098,0.012000
0.0679,-0.0295,1.0013,0.2591,0.6174,-0.6098,0.012000
0.0674,-0.0332,1.0042,0.2363,0.5793,-0.5412,0.012000
0.0673,-0.0323,0.9976,0.3049,0.5869,-0.5640,0.012000
0.0683,-0.0340,1.0014,0.2210,0.5869,-0.4573,0.012000
0.0651,-0.0326,0.9987,0.3125,0.5564,-0.4802,0.012000
0.0648,-0.0345,1.0033,0.3201,0.5945,-0.6174,0.012000
0.0703,-0.0301,1.0020,0.1982,0.5564,-0.4878,0.012000
0.0696,-0.0289,0.9995,0.2591,0.5259,-0.5640,0.012000
0.0685,-0.0303,1.0034,0.2210,0.5183,-0.6098,0.012000
0.0649,-0.0294,0.9968,0.3430,0.6250,-0.5716,0.012000
0.0675,-0.0309,1.0019,0.3659,0.4802,-0.5716,0.012000
0.0682,-0.0303,1.0016,0.1905,0.5335,-0.5640,0.012000
0.0677,-0.0325,0.9984,0.2820,0.5412,-0.6479,0.012000
0.0632,-0.0346,1.0007,0.2668,0.5412,-0.5793,0.012000
0.0664,-0.0326,0.9996,0.3125,0.6098,-0.5412,0.012000
0.0683,-0.0309,0.9971,0.3887,0.5793,-0.5412,0.012000
0.0681,-0.0300,1.0014,0.2058,0.5945,-0.5640,0.012000
0.0639,-0.0314,0.9969,0.3125,0.5716,-0.5030,0.012000
0.0643,-0.0318,0.9988,0.3049,0.5869,-0.5335,0.012000
0.0642,-0.0319,1.0000,0.2973,0.5335,-0.5564,0.012000
0.0695,-0.0313,0.9994,0.3354,0.5259,-0.5945,0.012000
0.0667,-0.0327,0.9982,0.2515,0.6098,-0.5640,0.012000
0.0652,-0.0328,1.0018,0.1905,0.5640,-0.5716,0.012000
0.0650,-0.0311,1.0012,0.3049,0.6174,-0.6250,0.012000
0.0668,-0.0304,0.9980,0.3049,0.4954,-0.6021,0.012000
0.0692,-0.0311,1.0009,0.2058,0.6174,-0.6174,0.012000
0.0670,-0.0317,1.0022,0.1905,0.6098,-0.5716,0.012000
0.0669,-0.0320,0.9982,0.2439,0.4573,-0.6021,0.012000
0.0667,-0.0319,0.9965,0.2515,0.5716,-0.6098,0.012000
0.0677,-0.0317,0.9998,0.3430,0.5869,-0.5412,0.012000
0.0679,-0.0310,1.0004,0.2896,0.6174,-0.5488,0.012000
0.0671,-0.0306,0.9985,0.2591,0.5640,-0.5412,0.012000
0.0674,-0.0310,0.9997,0.2973,0.5412,-0.5488,0.012000
0.0688,-0.0317,1.0014,0.1982,0.6021,-0.5488,0.012000
0.0679,-0.0295,0.9994,0.2134,0.5488,-0.5488,0.012000
0.0681,-0.0307,0.9996,0.3201,0.5869,-0.4954,0.012000
0.0654,-0.0316,1.0003,0.2058,0.6326,-0.5564,0.012000
0.0663,-0.0311,0.9988,0.2973,0.6098,-0.5488,0.012000
0.0660,-0.0322,1.0001,0.3125,0.5793,-0.5716,0.012000
0.0670,-0.0322,0.9999,0.2058,0.5640,-0.5640,0.012000
0.0690,-0.0283,0.9985,0.3582,0.6250,-0.5793,0.012000
0.0692,-0.0321,1.0009,0.2210,0.6707,-0.5945,0.012000
0.0695,-0.0313,0.9977,0.2973,0.5259,-0.5412,0.012000
0.0681,-0.0334,0.9990,0.3506,0.5488,-0.6479,0.012000
0.0669,-0.0344,1.0007,0.2973,0.5183,-0.6555,0.012000
0.0673,-0.0340,0.9985,0.2134,0.6326,-0.5488,0.012000
0.0673,-0.0317,1.0002,0.2515,0.6479,-0.5488,0.012000
0.0677,-0.0302,1.0016,0.3201,0.5869,-0.5259,0.012000
0.0657,-0.0316,0.9984,0.2744,0.4726,-0.5564,0.012000
0.0653,-0.0303,0.9998,0.3201,0.6021,-0.5793,0.012000
0.0658,-0.0296,1.0002,0.1677,0.5869,-0.6402,0.012000
0.0668,-0.0312,1.0002,0.1753,0.5869,-0.5488,0.012000
0.0673,-0.0326,1.0001,0.3430,0.6098,-0.4802,0.012000
0.0665,-0.0313,0.9996,0.3049,0.5183,-0.5793,0.012000
0.0681,-0.0328,0.9989,0.3963,0.6098,-0.5259,0.012000
0.0674,-0.0300,1.0021,0.3963,0.5259,-0.6021,0.012000
0.0661,-0.0292,1.0005,0.2896,0.5107,-0.5488,0.012000
0.0680,-0.0302,0.9998,0.3582,0.5335,-0.5183,0.012000
0.0680,-0.0322,0.9995,0.3277,0.5564,-0.6098,0.012000
0.0685,-0.0308,1.0010,0.2515,0.6021,-0.5030,0.012000
0.0654,-0.0329,0.9994,0.2134,0.5793,-0.5793,0.012000
0.0666,-0.0325,0.9995,0.3049,0.5259,-0.5488,0.012000
0.0675,-0.0328,0.9987,0.2363,0.5030,-0.5412,0.012000
0.0662,-0.0312,0.9992,0.2973,0.6098,-0.5335,0.012000
0.0703,-0.0303,1.0013,0.3049,0.6021,-0.4802,0.012000
0.0648,-0.0306,1.0004,0.2591,0.6402,-0.5564,0.012000
0.0673,-0.0317,0.9990,0.3659,0.5488,-0.5716,0.012000
0.0663,-0.0322,0.9998,0.2744,0.6250,-0.5107,0.012000
0.0648,-0.0311,1.0004,0.3201,0.5869,-0.5716,0.012000
0.0674,-0.0316,0.9995,0.2363,0.6631,-0.5869,0.012000
0.0679,-0.0313,1.0027,0.1220,0.5564,-0.6098,0.012000
0.0662,-0.0294,0.9938,0.2439,0.6021,-0.4954,0.012000
0.0710,-0.0367,1.0009,0.1067,0.3430,-0.5488,0.012000
0.0667,-0.0336,0.9979,-0.0381,0.5945,-0.4421,0.012000
0.0681,-0.0325,1.0046,0.4421,0.6326,-0.4802,0.012000
0.0684,-0.0295,0.9916,0.2591,0.4573,-0.4573,0.012000
0.0674,-0.0338,1.0142,0.3735,0.5793,-0.5564,0.012000
0.0667,-0.0254,0.9908,0.4573,0.6479,-0.6098,0.012000
0.0637,-0.0288,0.9973,0.4268,0.5945,-0.5945,0.012000
0.0677,-0.0331,1.0054,0.0991,0.5259,-0.5259,0.012000
0.0645,-0.0295,0.9937,0.3887,0.6250,-0.5183,0.012000
0.0672,-0.0319,1.0002,0.3506,0.5030,-0.5412,0.012000
0.0682,-0.0293,0.9992,0.3506,0.5335,-0.4954,0.012000
0.0670,-0.0316,0.9980,0.1905,0.5183,-0.5793,0.012000
0.0671,-0.0347,1.0056,0.2134,0.5335,-0.6021,0.012000
0.0643,-0.0300,0.9969,0.3735,0.6174,-0.5259,0.012000
0.0656,-0.0335,0.9988,0.3049,0.4878,-0.5259,0.012000
0.0662,-0.0294,0.9997,0.5564,0.5335,-0.5030,0.012000
0.0670,-0.0287,0.9990,0.2820,0.6555,-0.5183,0.012000
0.0696,-0.0316,0.9983,0.2744,0.6021,-0.5640,0.012000
0.0706,-0.0339,1.0035,0.3735,0.5107,-0.5869,0.012000
0.0685,-0.0334,1.0010,0.3201,0.5335,-0.5335,0.012000
0.0676,-0.0322,1.0022,0.3125,0.6860,-0.5716,0.012000
0.0686,-0.0325,1.0041,0.2896,0.6479,-0.5869,0.012000
0.0677,-0.0312,1.0013,0.2668,0.6707,-0.5335,0.012000
0.0667,-0.0316,0.9988,0.1753,0.6250,-0.4878,0.012000
0.0661,-0.0318,0.9967,0.3049,0.6402,-0.5412,0.012000
0.0679,-0.0317,0.9965,0.3125,0.6326,-0.5412,0.012000
0.0650,-0.0325,1.0004,0.2515,0.5107,-0.5335,0.012000
0.0649,-0.0319,1.0033,0.2820,0.4497,-0.5259,0.012000
0.0677,-0.0306,0.9983,0.2744,0.5412,-0.5716,0.012000
0.0684,-0.0317,0.9953,0.2363,0.6098,-0.5259,0.012000
0.0671,-0.0332,1.0012,0.2439,0.5716,-0.5412,0.012000
0.0667,-0.0323,1.0007,0.3201,0.5564,-0.4878,0.012000
0.0677,-0.0309,0.9996,0.3049,0.5793,-0.5945,0.012000
0.0668,-0.0290,0.9995,0.3582,0.5564,-0.5945,0.012000
0.0670,-0.0296,1.0000,0.2973,0.5259,-0.6326,0.012000
0.0671,-0.0316,0.9999,0.2744,0.5869,-0.5107,0.012000
0.0674,-0.0325,1.0018,0.2820,0.5793,-0.5259,0.012000
0.0667,-0.0322,0.9994,0.2896,0.5640,-0.6021,0.012000
0.0667,-0.0319,0.9982,0.3277,0.5793,-0.5716,0.012000
0.0669,-0.0323,0.9979,0.3582,0.5793,-0.5793,0.012000
0.0679,-0.0289,1.0004,0.2439,0.6479,-0.5183,0.012000
0.0697,-0.0329,0.9984,0.2210,0.5945,-0.5259,0.012000
0.0673,-0.0317,1.0005,0.3277,0.5564,-0.6326,0.012000
0.0656,-0.0316,0.9996,0.3506,0.5488,-0.5793,0.012000
0.0668,-0.0327,0.9998,0.3049,0.5488,-0.4573,0.012000
0.0682,-0.0276,0.9997,0.3201,0.5640,-0.5869,0.012000
0.0689,-0.0302,0.9992,0.2058,0.5793,-0.5640,0.012000
0.0682,-0.0312,1.0023,0.3735,0.6250,-0.6021,0.012000
0.0662,-0.0323,0.9938,0.2363,0.4345,-0.6402,0.012000
0.0678,-0.0283,0.9968,0.4345,0.4878,-0.6098,0.012000
0.0665,-0.0333,1.0033,0.1753,0.5412,-0.4954,0.012000
0.0687,-0.0312,0.9941,0.3582,0.5030,-0.5564,0.012000
0.0682,-0.0341,1.0029,0.1905,0.5030,-0.6021,0.012000
0.0648,-0.0302,0.9956,0.3277,0.4802,-0.5640,0.012000
0.0688,-0.0319,0.9980,0.2363,0.5945,-0.6174,0.012000
0.0696,-0.0323,1.0022,0.2515,0.5259,-0.5869,0.012000
0.0679,-0.0323,0.9990,0.3811,0.5793,-0.5793,0.012000
0.0692,-0.0326,1.0016,0.2515,0.6021,-0.6098,0.012000
0.0682,-0.0316,1.0002,0.3201,0.5793,-0.5869,0.012000
0.0662,-0.0308,1.0005,0.3735,0.6250,-0.5335,0.012000
0.0674,-0.0321,1.0018,0.2591,0.6402,-0.6555,0.012000
0.0682,-0.0320,1.0002,0.3201,0.5793,-0.5183,0.012000
0.0660,-0.0302,0.9989,0.1982,0.6098,-0.5716,0.012000
0.0703,-0.0303,0.9990,0.2134,0.5412,-0.4802,0.012000
0.0637,-0.0309,0.9992,0.3735,0.5945,-0.5945,0.012000
0.0650,-0.0306,0.9998,0.2515,0.6098,-0.5030,0.012000
0.0669,-0.0324,0.9983,0.2744,0.5107,-0.5030,0.012000
0.0682,-0.0320,0.9990,0.2515,0.5412,-0.5488,0.012000
0.0665,-0.0312,0.9995,0.2820,0.5488,-0.5412,0.012000
0.0671,-0.0318,0.9995,0.2820,0.5107,-0.5183,0.012000
0.0687,-0.0312,1.0002,0.2439,0.5107,-0.5564,0.012000
0.0673,-0.0310,1.0001,0.3201,0.5259,-0.5716,0.012000
0.0678,-0.0313,1.0005,0.2363,0.6250,-0.5107,0.012000
0.0671,-0.0314,0.9998,0.2134,0.4954,-0.5412,0.012000
0.0683,-0.0304,0.9990,0.1677,0.5107,-0.5259,0.012000
0.0680,-0.0308,1.0025,0.1753,0.4497,-0.5183,0.012000
0.0676,-0.0305,1.0002,0.2896,0.3963,-0.5564,0.012000
0.0678,-0.0316,0.9998,0.2896,0.5030,-0.5945,0.012000
0.0677,-0.0309,0.9984,0.3354,0.5259,-0.6021,0.012000
0.0684,-0.0321,1.0022,0.2973,0.5640,-0.5259,0.012000
0.0661,-0.0323,1.0010,0.3201,0.5259,-0.5412,0.012000
0.0671,-0.0308,1.0001,0.3735,0.5030,-0.5945,0.012000
0.0674,-0.0323,0.9992,0.2820,0.4573,-0.5869,0.012000
0.0684,-0.0301,1.0014,0.2973,0.5335,-0.5107,0.012000
0.0661,-0.0291,0.9995,0.3125,0.5183,-0.6174,0.012000
0.0663,-0.0309,1.0007,0.3049,0.5259,-0.5716,0.012000
0.0681,-0.0303,1.0015,0.2896,0.5945,-0.5640,0.012000
0.0684,-0.0313,0.9972,0.2744,0.6784,-0.5564,0.012000
0.0669,-0.0327,1.0018,0.2515,0.5183,-0.6402,0.012000
0.0668,-0.0325,0.9999,0.2668,0.6250,-0.5488,0.012000
0.0682,-0.0328,0.9994,0.2896,0.6021,-0.5945,0.012000
0.0692,-0.0310,1.0007,0.2439,0.5793,-0.5793,0.012000
0.0675,-0.0309,1.0009,0.2210,0.6250,-0.5640,0.012000
0.0679,-0.0311,1.0012,0.2439,0.5107,-0.5564,0.012000
0.0673,-0.0311,1.0007,0.2744,0.5259,-0.5564,0.012000
0.0687,-0.0310,0.9997,0.2973,0.5793,-0.5030,0.012000
0.0693,-0.0324,1.0002,0.2591,0.6250,-0.5564,0.012000
0.0673,-0.0312,1.0000,0.2439,0.5793,-0.5259,0.012000
0.0684,-0.0320,0.9998,0.2973,0.5945,-0.5488,0.012000
0.0678,-0.0303,0.9998,0.3811,0.5869,-0.6021,0.012000
0.0677,-0.0311,0.9987,0.4497,0.5869,-0.5107,0.012000
0.0654,-0.0322,0.9990,0.3811,0.5564,-0.5945,0.012000
0.0698,-0.0336,1.0014,0.1067,0.6021,-0.6250,0.012000
0.0671,-0.0335,0.9960,0.2058,0.6098,-0.5640,0.012000
0.0654,-0.0325,0.9980,0.3049,0.5107,-0.6326,0.012000
0.0654,-0.0316,1.0021,0.2744,0.6479,-0.5716,0.012000
0.0674,-0.0314,0.9996,0.1601,0.6174,-0.5030,0.012000
0.0670,-0.0296,0.9993,0.2210,0.5412,-0.5107,0.012000
0.0680,-0.0317,1.0004,0.2439,0.5640,-0.5640,0.012000
0.0680,-0.0307,1.0001,0.2363,0.5945,-0.5335,0.012000
0.0682,-0.0311,1.0002,0.2896,0.5107,-0.5488,0.012000
0.0701,-0.0305,0.9985,0.2134,0.5945,-0.5869,0.012000
0.0665,-0.0317,0.9980,0.3201,0.5107,-0.5412,0.012000
0.0684,-0.0327,0.9983,0.3963,0.4954,-0.5488,0.012000
0.0681,-0.0309,0.9999,0.3735,0.5107,-0.4878,0.012000
0.0675,-0.0323,1.0001,0.2439,0.6174,-0.4878,0.012000
0.0676,-0.0319,0.9996,0.3506,0.5259,-0.5259,0.012000
0.0674,-0.0319,1.0009,0.1982,0.6098,-0.5488,0.012000
0.0671,-0.0315,1.0010,0.2820,0.5030,-0.5259,0.012000
0.0659,-0.0314,0.9987,0.3887,0.5030,-0.5488,0.012000
0.0679,-0.0292,1.0013,0.3963,0.6326,-0.5030,0.012000
0.0675,-0.0322,1.0001,0.3887,0.5030,-0.5183,0.012000
0.0674,-0.0313,1.0001,0.2668,0.5335,-0.4802,0.012000
0.0682,-0.0303,1.0001,0.3354,0.5183,-0.4421,0.012000
0.0652,-0.0302,0.9995,0.3963,0.5259,-0.5716,0.012000
0.0672,-0.0308,1.0010,0.3430,0.5488,-0.5640,0.012000
0.0686,-0.0327,0.9992,0.2896,0.5716,-0.5716,0.012000
0.0700,-0.0320,0.9988,0.1982,0.6174,-0.5640,0.012000
0.0692,-0.0316,0.9980,0.1905,0.5335,-0.5869,0.012000
0.0670,-0.0325,0.9990,0.3354,0.5412,-0.4802,0.012000
0.0679,-0.0330,0.9993,0.2744,0.4954,-0.5640,0.012000
0.0677,-0.0325,1.0021,0.2820,0.5640,-0.6174,0.012000
0.0690,-0.0322,0.9999,0.3506,0.5335,-0.5259,0.012000
0.0696,-0.0300,1.0008,0.3125,0.5107,-0.4954,0.012000
0.0683,-0.0309,1.0016,0.2973,0.5259,-0.5107,0.012000
0.0691,-0.0305,0.9995,0.2591,0.4649,-0.5716,0.012000
0.0657,-0.0319,1.0000,0.2591,0.4649,-0.5030,0.012000
0.0649,-0.0304,0.9974,0.2820,0.5183,-0.5564,0.012000
0.0669,-0.0310,1.0010,0.3582,0.5107,-0.5945,0.012000
0.0700,-0.0311,1.0020,0.3354,0.5412,-0.6021,0.012000
0.0688,-0.0314,0.9989,0.2515,0.5412,-0.5259,0.012000
0.0665,-0.0304,0.9987,0.3201,0.5412,-0.5945,0.012000
0.0652,-0.0314,0.9982,0.3125,0.5945,-0.5412,0.012000
0.0662,-0.0313,0.9970,0.3049,0.5259,-0.5335,0.012000
0.0667,-0.0318,1.0004,0.3049,0.4802,-0.5488,0.012000
0.0686,-0.0300,0.9985,0.2668,0.5030,-0.6250,0.012000
0.0701,-0.0323,0.9988,0.1982,0.5030,-0.5793,0.012000
0.0679,-0.0323,0.9976,0.3506,0.4573,-0.5945,0.012000
0.0686,-0.0311,1.0010,0.3811,0.4649,-0.6098,0.012000
0.0679,-0.0309,1.0007,0.2439,0.5259,-0.6402,0.012000
0.0678,-0.0305,1.0007,0.3354,0.5412,-0.5412,0.012000
0.0679,-0.0311,1.0005,0.3887,0.5030,-0.4802,0.012000
0.0673,-0.0334,0.9990,0.3277,0.5640,-0.5716,0.012000
0.0681,-0.0331,1.0002,0.1829,0.5716,-0.6555,0.012000
0.0686,-0.0322,1.0004,0.2744,0.6555,-0.6479,0.012000
0.0667,-0.0309,0.9989,0.3506,0.6326,-0.4878,0.012000
0.0664,-0.0314,1.0009,0.3049,0.5793,-0.5412,0.012000
0.0660,-0.0305,0.9971,0.2591,0.5335,-0.5259,0.012000
0.0659,-0.0312,0.9995,0.2820,0.5183,-0.5640,0.012000
0.0698,-0.0314,1.0013,0.3354,0.5107,-0.6707,0.012000
0.0661,-0.0294,0.9963,0.2896,0.6250,-0.4878,0.012000
0.0665,-0.0298,0.9988,0.2668,0.6326,-0.5335,0.012000
0.0656,-0.0314,0.9996,0.3277,0.5412,-0.5030,0.012000
0.0666,-0.0317,1.0005,0.1905,0.5945,-0.5869,0.012000
0.0643,-0.0311,0.9973,0.3201,0.6250,-0.6326,0.012000
0.0704,-0.0322,1.0002,0.3277,0.5183,-0.5716,0.012000
0.0688,-0.0324,1.0014,0.2210,0.6402,-0.5183,0.012000
0.0667,-0.0321,0.9972,0.2363,0.6479,-0.5564,0.012000
0.0646,-0.0331,0.9987,0.1753,0.5564,-0.5488,0.012000
0.0674,-0.0321,1.0008,0.1905,0.5107,-0.5716,0.012000
0.0676,-0.0314,0.9987,0.3049,0.6555,-0.5412,0.012000
0.0670,-0.0320,0.9982,0.2591,0.6021,-0.5640,0.012000
0.0685,-0.0329,1.0007,0.3582,0.5716,-0.5564,0.012000
0.0667,-0.0307,1.0021,0.2668,0.5945,-0.5640,0.012000
0.0662,-0.0308,0.9982,0.2287,0.5640,-0.5412,0.012000
0.0688,-0.0319,1.0016,0.3049,0.6479,-0.5564,0.012000
0.0671,-0.0317,0.9984,0.1143,0.6021,-0.4954,0.012000
0.0684,-0.0330,0.9989,0.2363,0.5793,-0.5259,0.012000
0.0686,-0.0305,0.9976,0.3430,0.5488,-0.5716,0.012000
0.0696,-0.0312,1.0006,0.3125,0.7088,-0.6707,0.012000
0.0712,-0.0297,0.9998,0.3277,0.6250,-0.5412,0.012000
0.0683,-0.0319,0.9981,0.2668,0.5716,-0.5716,0.012000
0.0661,-0.0336,0.9965,0.2820,0.5412,-0.5945,0.012000
0.0665,-0.0339,1.0040,0.4268,0.5107,-0.5869,0.012000
0.0712,-0.0311,0.9986,0.2515,0.6098,-0.6402,0.012000
0.0681,-0.0294,0.9960,0.3506,0.6326,-0.5412,0.012000
0.0658,-0.0307,1.0035,0.3506,0.4802,-0.5335,0.012000
0.0653,-0.0326,1.0002,0.3125,0.5412,-0.5183,0.012000
0.0679,-0.0323,0.9974,0.2820,0.5869,-0.5335,0.012000
0.0685,-0.0324,0.9993,0.2515,0.4878,-0.5640,0.012000
0.0679,-0.0342,1.0016,0.2744,0.4726,-0.5030,0.012000
0.0661,-0.0339,1.0010,0.3125,0.5564,-0.5030,0.012000
0.0676,-0.0329,0.9974,0.2515,0.6250,-0.5869,0.012000
0.0698,-0.0342,0.9983,0.3125,0.5716,-0.5716,0.012000
0.0677,-0.0308,1.0024,0.2439,0.6631,-0.5107,0.012000
0.0660,-0.0304,0.9954,0.2820,0.6631,-0.5869,0.012000
0.0658,-0.0316,0.9976,0.2744,0.4954,-0.5107,0.012000
0.0689,-0.0333,1.0023,0.2668,0.4345,-0.6021,0.012000
0.0671,-0.0302,0.9955,0.2210,0.5259,-0.6326,0.012000
0.0672,-0.0301,0.9986,0.2515,0.5564,-0.5107,0.012000
0.0681,-0.0315,1.0004,0.2973,0.5183,-0.5793,0.012000
0.0677,-0.0306,1.0022,0.3659,0.5335,-0.5716,0.012000
0.0681,-0.0297,0.9980,0.1753,0.5259,-0.5488,0.012000
0.0684,-0.0300,0.9993,0.2363,0.5716,-0.5412,0.012000
0.0670,-0.0325,1.0003,0.2287,0.6555,-0.5488,0.012000
0.0670,-0.0334,0.9983,0.2591,0.5335,-0.6479,0.012000
0.0674,-0.0324,1.0006,0.3735,0.5030,-0.5793,0.012000
0.0692,-0.0332,1.0016,0.2668,0.5412,-0.5564,0.012000
0.0675,-0.0319,0.9999,0.2973,0.5412,-0.5183,0.012000
0.0682,-0.0325,0.9987,0.1829,0.5335,-0.5107,0.012000
0.0667,-0.0324,1.0001,0.2973,0.5259,-0.5488,0.012000
0.0676,-0.0293,1.0003,0.2973,0.5716,-0.5869,0.012000
0.0671,-0.0291,1.0027,0.2668,0.5335,-0.5716,0.012000
0.0668,-0.0325,1.0000,0.1982,0.5716,-0.5412,0.012000
0.0670,-0.0330,1.0004,0.2515,0.6250,-0.6021,0.012000
0.0682,-0.0313,0.9979,0.3277,0.5869,-0.5869,0.012000
0.0687,-0.0297,0.9984,0.2973,0.5564,-0.6326,0.012000
0.0685,-0.0304,0.9980,0.2134,0.5716,-0.6021,0.012000
0.0688,-0.0306,1.0016,0.3735,0.5335,-0.6250,0.012000
0.0701,-0.0316,0.9992,0.3506,0.5716,-0.5640,0.012000
0.0684,-0.0314,0.9976,0.2287,0.5716,-0.6250,0.012000
0.0685,-0.0303,0.9980,0.3430,0.5640,-0.6021,0.012000
0.0663,-0.0332,0.9979,0.2058,0.5564,-0.5183,0.012000
0.0662,-0.0313,0.9977,0.3125,0.6936,-0.5183,0.012000
0.0662,-0.0307,0.9985,0.2820,0.5793,-0.5107,0.012000
0.0654,-0.0303,0.9988,0.3430,0.4802,-0.6098,0.012000
0.0641,-0.0322,1.0001,0.3506,0.4878,-0.5564,0.012000
0.0714,-0.0303,1.0000,0.3049,0.6707,-0.5869,0.012000
0.0699,-0.0318,1.0007,0.3049,0.6402,-0.5030,0.012000
0.0682,-0.0345,1.0010,0.2591,0.6860,-0.5640,0.012000
0.0659,-0.0325,0.9987,0.3963,0.6555,-0.5869,0.012000
0.0659,-0.0314,1.0007,0.3430,0.7546,-0.5335,0.012000
0.0677,-0.0319,0.9989,0.2134,0.6860,-0.5793,0.012000
0.0670,-0.0297,1.0030,0.2439,0.6402,-0.5183,0.012000
0.0694,-0.0319,0.9998,0.3049,0.6555,-0.5030,0.012000
0.0723,-0.0307,1.0012,0.2210,0.7698,-0.5869,0.012000
0.0695,-0.0302,1.0016,0.3049,0.8308,-0.5716,0.012000
0.0637,-0.0319,0.9990,0.1601,0.7393,-0.5335,0.012000
0.0643,-0.0333,0.9979,0.2058,0.6555,-0.6021,0.012000
0.0674,-0.0324,0.9965,0.2820,0.6631,-0.5793,0.012000
0.0682,-0.0288,0.9998,0.3811,0.5564,-0.6479,0.012000
0.0674,-0.0269,1.0034,0.5412,0.5488,-0.6098,0.012000
0.0677,-0.0326,0.9993,0.1677,0.6402,-0.5869,0.012000
0.0684,-0.0298,0.9977,0.3582,0.5488,-0.5640,0.012000
0.0687,-0.0310,0.9980,0.2668,0.5640,-0.6174,0.012000
0.0690,-0.0303,0.9987,0.3049,0.6098,-0.6250,0.012000
0.0680,-0.0311,1.0001,0.2896,0.5488,-0.5259,0.012000
0.0653,-0.0322,0.9989,0.2439,0.4878,-0.6174,0.012000
0.0672,-0.0323,1.0009,0.2896,0.5259,-0.5412,0.012000
0.0684,-0.0329,0.9997,0.4421,0.5412,-0.5488,0.012000
0.0675,-0.0309,1.0005,0.3735,0.6402,-0.5640,0.012000
0.0682,-0.0290,0.9999,0.3354,0.5640,-0.5488,0.012000
0.0651,-0.0318,1.0009,0.2744,0.4421,-0.5793,0.012000
0.0681,-0.0318,0.9986,0.2896,0.6174,-0.5640,0.012000
0.0718,-0.0329,1.0001,0.2591,0.5869,-0.6021,0.012000
0.0704,-0.0338,0.9991,0.2896,0.4802,-0.6326,0.012000
0.0693,-0.0327,0.9982,0.4116,0.5945,-0.5488,0.012000
0.0677,-0.0316,0.9998,0.2210,0.6402,-0.5716,0.012000
0.0685,-0.0311,0.9988,0.1753,0.6021,-0.5564,0.012000
0.0681,-0.0297,0.9995,0.1905,0.5564,-0.6479,0.012000
0.0678,-0.0300,1.0009,0.3049,0.5259,-0.5716,0.012000
0.0680,-0.0317,0.9978,0.2210,0.6479,-0.5030,0.012000
0.0687,-0.0316,1.0015,0.2820,0.6250,-0.4497,0.012000
0.0679,-0.0306,1.0007,0.2058,0.5488,-0.5488,0.012000
0.0662,-0.0334,1.0022,0.2820,0.5412,-0.5945,0.012000
0.0662,-0.0322,0.9984,0.2668,0.5869,-0.6174,0.012000
0.0658,-0.0312,0.9988,0.2820,0.5259,-0.5640,0.012000
0.0683,-0.0313,0.9979,0.2668,0.5259,-0.5869,0.012000
0.0677,-0.0298,0.9991,0.3049,0.4878,-0.5793,0.012000
0.0665,-0.0300,1.0027,0.2591,0.5869,-0.5945,0.012000
0.0671,-0.0297,0.9989,0.2058,0.5869,-0.5488,0.012000
0.0659,-0.0305,0.9992,0.2134,0.5716,-0.5412,0.012000
0.0674,-0.0339,1.0024,0.2668,0.5793,-0.5564,0.012000
0.0670,-0.0331,1.0004,0.3125,0.5869,-0.6555,0.012000
0.0699,-0.0321,0.9993,0.2287,0.6326,-0.6021,0.012000
0.0679,-0.0287,1.0007,0.4192,0.5564,-0.5335,0.012000
0.0670,-0.0283,0.9996,0.2668,0.5793,-0.6326,0.012000
0.0656,-0.0296,0.9987,0.2668,0.6098,-0.5716,0.012000
0.0655,-0.0308,1.0009,0.3049,0.6174,-0.5716,0.012000
0.0660,-0.0308,0.9995,0.2591,0.5488,-0.5869,0.012000
0.0690,-0.0310,1.0009,0.2439,0.5640,-0.5869,0.012000
0.0682,-0.0327,0.9969,0.2058,0.5488,-0.5945,0.012000
0.0685,-0.0327,0.9982,0.2896,0.5793,-0.6021,0.012000
0.0657,-0.0310,1.0007,0.2820,0.5259,-0.5030,0.012000
0.0662,-0.0314,1.0007,0.2744,0.4878,-0.5183,0.012000
0.0680,-0.0322,0.9982,0.3659,0.5716,-0.5793,0.012000
0.0685,-0.0305,0.9991,0.3125,0.5412,-0.5488,0.012000
0.0657,-0.0302,1.0009,0.2820,0.5412,-0.5030,0.012000
0.0667,-0.0308,1.0001,0.2896,0.6098,-0.5107,0.012000
0.0670,-0.0320,0.9998,0.2134,0.5793,-0.6326,0.012000
0.0678,-0.0324,1.0030,0.3430,0.6098,-0.5107,0.012000
0.0687,-0.0321,1.0033,0.2515,0.5945,-0.4878,0.012000
0.0685,-0.0333,1.0016,0.2896,0.6174,-0.5716,0.012000
0.0698,-0.0315,1.0002,0.2896,0.5716,-0.6479,0.012000
0.0683,-0.0332,1.0001,0.3125,0.5945,-0.6860,0.012000
0.0650,-0.0308,0.9982,0.2515,0.5793,-0.4573,0.012000
0.0647,-0.0302,0.9989,0.2973,0.5793,-0.5030,0.012000
0.0656,-0.0316,1.0019,0.2515,0.6098,-0.5183,0.012000
0.0686,-0.0298,1.0016,0.2287,0.6479,-0.5335,0.012000
0.0693,-0.0308,0.9982,0.2591,0.6784,-0.5335,0.012000
0.0679,-0.0333,1.0018,0.2363,0.6860,-0.5793,0.012000
0.0659,-0.0345,1.0000,0.1296,0.6936,-0.5564,0.012000
0.0651,-0.0344,0.9962,0.2515,0.6936,-0.5412,0.012000
0.0653,-0.0321,0.9974,0.3277,0.6860,-0.5716,0.012000
0.0679,-0.0294,0.9986,0.2896,0.6402,-0.5640,0.012000
0.0702,-0.0339,1.0043,0.2287,0.6098,-0.5640,0.012000
0.0609,-0.0280,0.9982,0.4802,0.6479,-0.5335,0.012000
0.0632,-0.0316,0.9946,0.1601,0.4421,-0.5488,0.012000
0.0668,-0.0309,1.0040,0.3582,0.4878,-0.5640,0.012000
0.0688,-0.0331,0.9989,0.1601,0.6479,-0.5183,0.012000
0.0671,-0.0341,0.9930,0.2210,0.5030,-0.5564,0.012000
0.0684,-0.0370,1.0054,0.3201,0.4726,-0.5945,0.012000
0.0665,-0.0328,0.9991,0.3354,0.6707,-0.6784,0.012000
0.0672,-0.0315,0.9965,0.2591,0.7241,-0.5412,0.012000
0.0665,-0.0289,1.0037,0.2591,0.5412,-0.5259,0.012000
0.0635,-0.0284,0.9990,0.1905,0.6631,-0.5259,0.012000
0.0668,-0.0301,0.9985,0.2820,0.6784,-0.5412,0.012000
0.0696,-0.0312,1.0004,0.3125,0.4573,-0.5793,0.012000
0.0698,-0.0328,1.0023,0.1448,0.5183,-0.5716,0.012000
0.0660,-0.0350,0.9976,0.3201,0.6936,-0.5107,0.012000
0.0689,-0.0347,0.9993,0.4192,0.5564,-0.5030,0.012000
0.0699,-0.0320,1.0001,0.3277,0.5259,-0.5488,0.012000
0.0702,-0.0295,1.0018,0.3735,0.5640,-0.5259,0.012000
0.0674,-0.0305,1.0002,0.4497,0.6326,-0.5335,0.012000
0.0625,-0.0297,1.0016,0.2134,0.5183,-0.5107,0.012000
0.0649,-0.0297,1.0001,0.2439,0.5259,-0.6098,0.012000
0.0654,-0.0281,0.9961,0.3735,0.5030,-0.5869,0.012000
0.0674,-0.0309,1.0004,0.3506,0.5564,-0.5945,0.012000
0.0700,-0.0349,1.0014,0.1677,0.6250,-0.5945,0.012000
0.0663,-0.0352,0.9999,0.3506,0.5412,-0.5335,0.012000
0.0665,-0.0322,1.0002,0.3049,0.4878,-0.6402,0.012000
0.0665,-0.0318,1.0012,0.2896,0.5564,-0.5716,0.012000
0.0676,-0.0302,0.9999,0.3277,0.5564,-0.5793,0.012000
0.0657,-0.0286,0.9993,0.3125,0.5640,-0.4573,0.012000
0.0651,-0.0316,1.0029,0.2668,0.5716,-0.4954,0.012000
0.0648,-0.0305,1.0006,0.3277,0.4573,-0.4954,0.012000
0.0676,-0.0314,1.0000,0.3049,0.6021,-0.5564,0.012000
0.0668,-0.0327,1.0003,0.2363,0.4954,-0.5793,0.012000
0.0670,-0.0319,0.9997,0.2744,0.5183,-0.5030,0.012000
0.0696,-0.0325,1.0003,0.2515,0.5716,-0.5030,0.012000
0.0692,-0.0314,0.9992,0.3354,0.5793,-0.5335,0.012000
0.0676,-0.0320,1.0016,0.2287,0.5869,-0.6174,0.012000
0.0667,-0.0309,0.9995,0.3506,0.5793,-0.6326,0.012000
0.0670,-0.0298,0.9991,0.3277,0.5259,-0.5945,0.012000
0.0646,-0.0299,0.9987,0.2744,0.5488,-0.5107,0.012000
0.0664,-0.0289,1.0016,0.2591,0.5183,-0.5793,0.012000
0.0671,-0.0311,0.9991,0.2210,0.4802,-0.6021,0.012000
0.0704,-0.0341,1.0006,0.2439,0.5335,-0.5335,0.012000
0.0717,-0.0323,0.9987,0.3354,0.5869,-0.5488,0.012000
0.0698,-0.0320,0.9984,0.2896,0.5869,-0.5793,0.012000
0.0692,-0.0309,0.9991,0.3430,0.5869,-0.5716,0.012000
0.0632,-0.0314,0.9991,0.3430,0.6174,-0.5869,0.012000
0.0650,-0.0308,0.9998,0.3506,0.6250,-0.6021,0.012000
0.0658,-0.0292,1.0009,0.3430,0.4954,-0.5030,0.012000
0.0682,-0.0314,1.0021,0.2363,0.6021,-0.5869,0.012000
0.0660,-0.0309,0.9999,0.2210,0.6326,-0.5945,0.012000
0.0676,-0.0319,1.0008,0.3049,0.4878,-0.5030,0.012000
0.0688,-0.0329,1.0014,0.1601,0.5716,-0.6098,0.012000
0.0690,-0.0311,0.9994,0.3049,0.5564,-0.5945,0.012000
0.0660,-0.0330,0.9985,0.3125,0.5412,-0.4878,0.012000
0.0655,-0.0330,0.9995,0.1601,0.5335,-0.5259,0.012000
0.0687,-0.0306,0.9990,0.2134,0.5716,-0.5640,0.012000
0.0666,-0.0282,0.9999,0.2744,0.5183,-0.5412,0.012000
0.0648,-0.0306,0.9978,0.1905,0.5335,-0.4878,0.012000
0.0675,-0.0292,0.9992,0.0152,0.4573,-0.5488,0.012000
0.0690,-0.0325,1.0027,-0.2515,0.4116,-0.6326,0.012000
0.0698,-0.0338,1.0030,0.0762,0.5793,-0.5564,0.012000
0.0523,-0.0298,0.9988,0.1524,0.4345,-0.1067,0.012000
-0.0150,-0.0113,1.0052,0.2591,0.4268,5.1220,0.012000
-0.0411,0.0066,1.0008,0.8537,0.5030,12.2790,0.012000
-0.0368,-0.0067,1.0010,0.4268,0.4802,11.4024,0.012000
-0.0178,-0.0082,1.0038,0.1220,0.4573,5.2973,0.012000
0.0197,0.0204,1.0005,0.6098,1.1433,-9.6723,0.012000
0.0095,0.0424,1.0036,0.5183,1.2881,-15.3430,0.012000
-0.0110,0.0040,1.0003,-0.4421,0.9985,-18.8034,0.012000
0.0016,-0.0219,1.0031,-1.0671,0.8994,-19.8095,0.012000
0.0876,-0.0281,0.9990,-0.5107,1.1662,-24.5503,0.012000
0.1851,-0.0906,0.9949,-0.8613,1.0518,-24.9314,0.012000
0.3453,-0.1878,0.9903,-0.6021,0.9299,-15.6098,0.012000
0.3604,-0.1404,0.9903,0.0686,0.5107,1.8674,0.012000
0.1171,-0.0153,0.9987,0.1067,0.1524,9.7637,0.012000
0.0706,-0.0401,1.0016,-0.1677,0.4116,1.5320,0.012000
0.0671,-0.0345,0.9974,0.4268,0.6479,-0.0457,0.012000
0.0643,-0.0322,0.9994,0.5335,0.6326,-0.7470,0.012000
0.0669,-0.0355,1.0007,0.5869,0.7088,-0.6021,0.012000
0.0678,-0.0342,1.0001,0.8155,0.7851,-0.5640,0.012000
0.0656,-0.0352,1.0007,0.5335,0.7012,-0.7393,0.012000
0.0631,-0.0414,0.9976,0.4040,0.7470,-2.6067,0.012000
0.0766,-0.0403,0.9967,0.1753,0.7546,-6.6692,0.012000
0.0709,-0.0240,1.0001,0.3659,0.7851,-7.2637,0.012000
0.0580,-0.0327,0.9999,0.6479,0.8841,-5.7088,0.012000
0.0470,-0.0261,0.9998,-0.2210,0.6174,-7.8659,0.012000
0.0630,-0.0002,0.9992,-0.3659,0.6021,-9.1387,0.012000
0.0792,-0.0230,1.0041,-0.4878,0.5793,-8.0945,0.012000
0.0596,-0.0469,1.0032,0.1601,0.8308,-5.7774,0.012000
0.0175,-0.0598,1.0208,0.2515,1.4710,-4.1997,0.012000
0.0374,-0.0239,1.0167,-11.9131,9.4131,-1.6311,0.012000
0.0532,-0.0165,0.9878,-15.6784,10.9223,-0.1829,0.012000
0.0924,-0.0222,0.9570,-13.7576,7.7287,1.2195,0.012000
0.1036,-0.0377,1.0092,-10.4726,1.1814,2.9040,0.012000
-0.0259,-0.0554,1.0346,-14.2607,2.2485,-1.7835,0.012000
-0.0196,-0.0757,1.0418,-22.5991,3.7271,-3.1479,0.012000
0.0197,-0.0792,1.0125,-35.0305,3.3918,-2.4771,0.012000
0.0954,-0.1000,0.9762,-43.8110,-0.8537,-1.9588,0.012000
0.1089,-0.1042,0.9998,-47.9497,-9.4207,1.1280,0.012000
0.1578,-0.0561,1.0031,-56.0976,-15.7317,1.8293,0.012000
0.1061,-0.1055,1.0137,-56.9741,-17.0427,-3.9710,0.012000
0.0578,-0.1456,1.0193,-55.0305,-16.6082,-5.9299,0.012000
0.0875,-0.1579,1.0152,-46.9284,-19.6037,-3.8720,0.012000
0.1354,-0.1263,1.0162,-35.7470,-26.5473,1.5854,0.012000
0.1573,-0.1332,1.0353,-20.8613,-37.5381,6.8064,0.012000
0.1985,-0.1877,0.9818,-16.8369,-32.6601,6.7226,0.012000
0.1146,-0.1492,0.9838,-13.7043,-23.1326,8.2470,0.012000
-0.0133,-0.1194,0.9940,-8.7424,-12.1951,1.0976,0.012000
0.0075,-0.1165,1.0081,-7.9497,-8.0030,-4.0473,0.012000
0.0675,-0.1271,1.0580,-3.8415,-1.2043,-4.5884,0.012000
0.0693,-0.1184,1.0277,-4.7332,6.2576,-6.4329,0.012000
0.0907,-0.1262,0.9941,-6.1662,12.0732,-11.6921,0.012000
0.1125,-0.1459,0.9683,-7.1799,14.3521,-14.4970,0.012000
0.1320,-0.1617,0.9273,-6.7073,13.0107,-14.1845,0.012000
0.1604,-0.1493,0.9515,-1.4634,-2.3171,-7.4390,0.012000
0.1197,-0.1222,0.9872,2.1875,-4.3369,-4.4284,0.012000
0.1072,-0.1182,0.9819,4.6799,-2.9497,-4.5351,0.012000
0.1219,-0.1092,0.9703,6.8140,-5.4954,-5.0991,0.012000
0.0314,-0.1448,1.0104,8.6357,-7.8354,-5.4192,0.012000
0.0424,-0.1119,0.9790,11.9284,0.4268,-0.8079,0.012000
0.1207,-0.1157,0.9569,12.8506,3.9710,1.8902,0.012000
0.1313,-0.1167,0.9472,9.7866,3.5213,1.5930,0.012000
0.1231,-0.1196,0.9417,4.2683,0.9146,-1.3262,0.012000
0.0784,-0.1234,0.9845,2.5686,-1.8064,-1.6845,0.012000
0.0892,-0.0994,0.9913,3.7348,2.6067,2.3399,0.012000
0.1248,-0.1249,0.9792,1.5244,7.8430,4.4893,0.012000
0.1455,-0.1299,0.9561,-2.2027,6.7607,2.3018,0.012000
0.1579,-0.1173,0.9542,-5.0229,1.2881,-1.9893,0.012000
0.1005,-0.1467,1.0038,-3.5518,-1.5854,-9.7027,0.012000
0.0759,-0.1462,0.9659,-1.7759,4.0777,-8.4375,0.012000
0.1270,-0.2089,0.9547,-1.7759,6.9360,-8.5518,0.012000
0.1609,-0.2786,0.9426,-8.5823,14.8628,-22.0274,0.012000
0.0272,-0.0198,0.9263,-17.9649,20.9680,-29.1159,0.012000
0.0623,-0.1697,0.9727,-1.9817,-15.3811,-6.4787,0.012000
0.1091,-0.1259,0.9957,2.4543,-15.2668,-3.0716,0.012000
0.1105,-0.1205,0.9810,-2.3704,-3.4680,-4.9924,0.012000
0.1042,-0.1437,0.9642,-6.2119,3.3155,-7.0427,0.012000
0.1051,-0.1498,0.9675,-5.3049,0.2591,-6.9284,0.012000
0.0939,-0.1680,0.9974,-4.9009,-6.9817,-6.7073,0.012000
0.0942,-0.1514,0.9985,-4.7332,-7.6905,-6.5854,0.012000
0.1164,-0.1451,1.0237,-3.4604,-7.0808,-6.0518,0.012000
0.1499,-0.1609,1.0458,-2.6905,-6.3338,-7.3247,0.012000
0.1054,-0.1364,0.9871,1.4101,-5.1829,-10.6784,0.012000
0.1171,-0.1540,0.9980,6.7530,-0.7622,-10.7546,0.012000
0.0815,-0.1459,0.9755,5.0305,1.7073,-10.3354,0.012000
0.0938,-0.1492,0.9716,0.1982,2.7973,-9.1692,0.012000
0.1130,-0.1560,0.9852,-1.6845,2.2790,-8.0488,0.012000
0.1199,-0.1481,1.0202,-0.0838,2.7591,-6.8750,0.012000
0.0911,-0.1583,1.0262,4.1463,2.3933,-6.0899,0.012000
0.0996,-0.1507,1.0383,8.5747,3.1936,-4.8323,0.012000
0.1164,-0.1490,1.0364,12.1189,4.6799,-3.8338,0.012000
0.1256,-0.1437,1.0189,13.8262,6.0442,-3.9558,0.012000
0.1365,-0.1349,1.0028,18.6357,6.4024,-6.5091,0.012000
0.1195,-0.1354,0.9904,19.9390,7.4848,-7.0046,0.012000
0.1033,-0.1313,0.9784,20.0000,7.5610,-6.8216,0.012000
0.1121,-0.1230,0.9821,18.4146,5.9299,-6.2729,0.012000
0.1155,-0.1197,1.0032,16.0518,4.5884,-6.0061,0.012000
0.0916,-0.1058,1.0294,15.2591,6.7454,-5.1982,0.012000
0.0893,-0.1013,1.0377,19.4893,5.9375,-4.0244,0.012000
0.1060,-0.1078,1.0297,23.7500,3.6738,-3.2241,0.012000
0.1306,-0.1122,1.0249,26.9970,1.6921,-3.8491,0.012000
0.1357,-0.1147,1.0173,28.0335,0.6479,-5.4878,0.012000
0.1184,-0.1099,1.0326,29.4741,-0.4802,-7.1265,0.012000
0.1001,-0.0645,1.0273,31.2881,0.0610,-6.6159,0.012000
0.0667,-0.0474,1.0203,31.0899,0.1143,-8.3537,0.012000
0.0908,-0.0687,1.0612,29.5274,1.9055,-9.3064,0.012000
0.0941,-0.0572,1.0529,30.7012,9.5351,-9.3445,0.012000
0.0965,-0.0590,1.0396,35.2287,18.7043,-8.1098,0.012000
0.1087,-0.0516,0.9990,37.4466,18.5747,-7.6296,0.012000
0.1174,-0.0422,0.9788,38.5442,15.2744,-7.7820,0.012000
0.1047,-0.0352,0.9896,38.7805,11.5701,-8.4832,0.012000
0.1107,-0.0285,1.0035,36.0290,7.5686,-10.6098,0.012000
0.1019,-0.0167,1.0082,35.6936,6.9436,-12.3780,0.012000
0.0896,-0.0078,1.0076,36.0747,7.3171,-12.8582,0.012000
0.0618,-0.0037,1.0040,38.1784,8.8796,-11.6235,0.012000
0.0634,0.0267,0.9876,40.9832,10.7470,-9.3750,0.012000
0.0995,0.0182,0.9906,41.9665,12.5762,-8.1250,0.012000
0.1005,0.0235,0.9879,41.0213,11.8902,-8.9177,0.012000
0.0912,0.0305,0.9828,39.4665,9.5046,-9.5884,0.012000
0.0791,0.0391,0.9738,38.9405,6.0061,-9.4817,0.012000
0.0739,0.0486,0.9632,40.6402,2.8277,-8.8110,0.012000
0.0441,0.0558,1.0106,44.3750,-0.7851,-6.8293,0.012000
0.0593,0.0762,0.9918,43.9787,0.0991,-5.3582,0.012000
0.0800,0.0813,0.9778,43.5671,-3.1098,-5.5183,0.012000
0.0939,0.0900,0.9832,43.5823,-9.5198,-6.6768,0.012000
0.0747,0.0967,0.9940,41.6616,-11.8140,-8.6890,0.012000
0.0362,0.1261,1.0471,39.1540,-7.3857,-10.1143,0.012000
0.0435,0.1405,1.0589,38.8415,-1.5473,-9.7485,0.012000
0.0687,0.1284,1.0218,40.1372,3.9101,-9.4588,0.012000
0.0873,0.1354,0.9808,43.3155,6.0061,-9.4055,0.012000
0.0923,0.1383,0.9601,43.9710,4.7256,-10.2744,0.012000
0.0872,0.1461,0.9427,37.4238,-4.3979,-11.4177,0.012000
0.0916,0.1375,0.9877,36.2348,-9.3521,-10.9909,0.012000
0.0840,0.1625,1.0444,36.0976,-6.9512,-10.8841,0.012000
0.0775,0.1886,1.0568,36.0823,0.6174,-11.4253,0.012000
0.1132,0.1772,0.9889,39.6189,9.9085,-13.1326,0.012000
0.1118,0.1744,0.9620,45.8003,6.2271,-13.4146,0.012000
0.0936,0.1568,0.9612,50.4878,0.3354,-13.4985,0.012000
0.0776,0.1883,0.9634,50.4878,-1.6463,-12.9802,0.012000
0.0679,0.2055,0.9651,47.5610,-0.9375,-12.5457,0.012000
0.0627,0.2299,0.9915,39.4284,10.5412,-11.3110,0.012000
0.0760,0.2294,0.9969,37.5838,15.5716,-11.2348,0.012000
0.0920,0.2313,0.9786,37.5838,19.6799,-12.1723,0.012000
0.0854,0.2282,0.9554,38.6204,21.6616,-12.9268,0.012000
0.0558,0.2294,0.9531,41.1433,20.9146,-12.7973,0.012000
0.0638,0.2597,0.9434,41.5777,22.5381,-11.6235,0.012000
0.0543,0.2592,0.9424,40.4802,22.2866,-11.2043,0.012000
0.0616,0.2717,0.9462,38.9329,21.7226,-11.6692,0.012000
0.0544,0.2704,0.9587,38.8338,20.8308,-12.2637,0.012000
0.0432,0.2774,0.9609,40.0305,19.3521,-12.4314,0.012000
0.0049,0.2855,0.9812,41.5091,17.8430,-12.6677,0.012000
-0.0098,0.3096,0.9827,41.5777,21.7378,-11.6921,0.012000
0.0062,0.3192,0.9626,41.5930,26.5091,-10.5793,0.012000
0.0165,0.3227,0.9525,42.1875,29.6875,-9.6723,0.012000
0.0223,0.3290,0.9537,41.4482,30.1067,-9.4665,0.012000
0.0338,0.3325,0.9545,45.0076,19.5579,-9.9162,0.012000
0.0211,0.3564,0.9804,46.2652,18.9863,-11.2805,0.012000
0.0043,0.3679,0.9683,46.9665,22.3552,-12.8277,0.012000
-0.0204,0.3699,0.9543,47.8887,26.2195,-13.6662,0.012000
-0.0280,0.3835,0.9189,48.5899,31.3643,-12.3171,0.012000
-0.0293,0.3835,0.9196,47.6982,31.1357,-11.4558,0.012000
-0.0301,0.3929,0.9218,46.2576,30.5793,-11.1662,0.012000
-0.0447,0.4007,0.9190,44.7561,30.3887,-10.8460,0.012000
-0.0399,0.4219,0.9203,43.5595,30.8460,-10.5335,0.012000
-0.0413,0.4165,0.8971,46.5091,32.1037,-11.7530,0.012000
-0.0547,0.4277,0.8835,47.1341,32.1341,-11.8445,0.012000
-0.0679,0.4413,0.8730,46.2576,31.9055,-11.5168,0.012000
-0.0656,0.4525,0.8494,43.4375,30.6707,-10.9299,0.012000
-0.0686,0.4467,0.8552,39.7485,27.3933,-10.7241,0.012000
-0.0970,0.4548,0.8629,34.8933,21.6845,-11.0518,0.012000
-0.1239,0.4567,0.8695,35.2668,19.9619,-9.9771,0.012000
-0.1185,0.4694,0.8432,34.7561,20.6098,-8.3079,0.012000
-0.1034,0.4619,0.8018,33.3384,19.7866,-6.8674,0.012000
-0.1075,0.4683,0.7998,30.9527,18.1098,-6.2271,0.012000
-0.1332,0.4868,0.8256,25.1296,16.8445,-5.1296,0.012000
-0.1240,0.4847,0.8245,23.7119,17.0046,-4.5579,0.012000
-0.1243,0.4897,0.8260,22.0427,16.1357,-4.2607,0.012000
-0.1368,0.4959,0.8309,20.7546,13.7729,-3.7729,0.012000
-0.1234,0.5015,0.8522,20.0534,13.2393,-3.3537,0.012000
-0.1255,0.5061,0.8401,20.5335,19.3445,-4.2759,0.012000
-0.1249,0.5039,0.8212,21.1966,19.5884,-4.6341,0.012000
-0.1245,0.4984,0.8076,21.5396,17.1951,-4.2149,0.012000
-0.1294,0.5068,0.8060,20.3430,14.6189,-3.5366,0.012000
-0.1306,0.5128,0.8146,17.2027,11.8674,-3.3384,0.012000
-0.1371,0.5163,0.8175,12.8506,5.0457,-3.8034,0.012000
-0.1437,0.5170,0.8238,11.9360,2.4848,-3.4146,0.012000
-0.1459,0.5242,0.8323,11.1357,3.3155,-2.8659,0.012000
-0.1469,0.5305,0.8529,11.0518,7.0884,-2.6372,0.012000
-0.1269,0.5194,0.8318,15.7012,11.2729,-2.9573,0.012000
-0.1291,0.5075,0.8312,18.0107,8.0488,-2.9954,0.012000
-0.1506,0.5248,0.8398,17.4924,6.9817,-2.7668,0.012000
-0.1451,0.5284,0.8202,15.7774,7.2180,-2.5991,0.012000
-0.1348,0.5240,0.8113,14.1997,7.2104,-2.7668,0.012000
-0.1565,0.5278,0.8007,9.7637,6.6540,-2.9421,0.012000
-0.1570,0.5354,0.8037,6.6540,6.5015,-2.5229,0.012000
-0.1467,0.5332,0.8026,4.7256,6.5777,-2.1265,0.012000
-0.1515,0.5317,0.7977,4.7790,5.8841,-1.9360,0.012000
-0.1546,0.5357,0.7957,5.1067,4.7027,-1.9436,0.012000
-0.1651,0.5356,0.7946,4.7561,3.2851,-1.1128,0.012000
-0.1512,0.5328,0.7842,3.2012,2.6372,-0.6021,0.012000
-0.1486,0.5347,0.7908,1.3110,1.9284,-0.7012,0.012000
-0.1547,0.5316,0.7974,-0.5793,1.0671,-1.2729,0.012000
-0.1613,0.5351,0.8079,-1.3338,0.1677,-1.3643,0.012000
-0.1574,0.5432,0.8336,-1.4253,2.2713,-1.4558,0.012000
-0.1518,0.5383,0.8229,-1.0899,2.9802,-1.9207,0.012000
-0.1537,0.5353,0.8170,-0.6631,2.4543,-2.0351,0.012000
-0.1512,0.5411,0.8130,-0.8689,1.7759,-2.2256,0.012000
-0.1726,0.5421,0.8328,-1.5320,1.5777,-2.3780,0.012000
-0.1724,0.5471,0.8405,-1.6768,3.2927,-1.4024,0.012000
-0.1644,0.5457,0.8388,-1.2043,4.0854,-0.8537,0.012000
-0.1575,0.5470,0.8329,0.3582,3.3308,-0.5107,0.012000
-0.1570,0.5468,0.8336,1.6082,2.7439,-0.6707,0.012000
-0.1588,0.5484,0.8099,0.8994,4.5884,-0.8689,0.012000
-0.1554,0.5527,0.8064,0.5107,3.5671,-0.9527,0.012000
-0.1552,0.5481,0.8142,0.5564,1.3262,-0.9299,0.012000
-0.1552,0.5526,0.8266,-0.3277,-0.7927,-0.8460,0.012000
-0.1616,0.5549,0.8402,-0.9680,-1.6082,-0.7927,0.012000
-0.1603,0.5525,0.8315,0.1905,1.6692,-0.5945,0.012000
-0.1569,0.5460,0.8152,0.5640,1.9817,-0.3811,0.012000
-0.1541,0.5502,0.8088,0.0305,1.0137,-0.2896,0.012000
-0.1580,0.5490,0.8144,-0.8308,-0.9070,-0.2439,0.012000
-0.1581,0.5511,0.8190,-1.8750,-2.0427,-0.1982,0.012000
-0.1591,0.5526,0.8244,-3.3689,-1.1204,0.2058,0.012000
-0.1573,0.5485,0.8224,-3.6738,-0.6250,0.3506,0.012000
-0.1543,0.5482,0.8179,-4.0015,-0.8079,0.2591,0.012000
-0.1505,0.5457,0.8157,-4.2530,-1.7226,0.0305,0.012000
-0.1481,0.5477,0.8158,-4.6723,-2.2637,-0.2287,0.012000
-0.1548,0.5444,0.8141,-7.4238,-1.3872,-1.1357,0.012000
-0.1547,0.5417,0.8105,-9.2988,-1.7835,-1.4329,0.012000
-0.1514,0.5400,0.8102,-11.0595,-2.8659,-1.4939,0.012000
-0.1516,0.5349,0.8051,-12.3628,-4.6951,-1.3567,0.012000
-0.1642,0.5338,0.8246,-13.9939,-7.5381,-1.1966,0.012000
-0.1606,0.5350,0.8364,-17.7973,-10.4421,-0.0229,0.012000
-0.1556,0.5335,0.8359,-19.4436,-9.4970,0.1982,0.012000
-0.1591,0.5275,0.8458,-20.4345,-8.6662,0.3887,0.012000
-0.1551,0.5276,0.8430,-21.2652,-7.3323,0.7393,0.012000
-0.1475,0.5087,0.8296,-20.7851,-10.2896,1.8216,0.012000
-0.1502,0.5092,0.8331,-20.6936,-12.3247,2.2104,0.012000
-0.1501,0.5059,0.8406,-21.3720,-14.2912,2.7287,0.012000
-0.1473,0.5090,0.8527,-22.0122,-14.8552,3.3232,0.012000
-0.1454,0.5049,0.8549,-22.3933,-13.6814,3.6662,0.012000
-0.1504,0.4968,0.8585,-20.7012,-11.3110,5.2439,0.012000
-0.1344,0.4891,0.8594,-19.2835,-10.1448,6.1280,0.012000
-0.1198,0.4885,0.8562,-18.7348,-8.9177,6.3491,0.012000
-0.1102,0.4861,0.8564,-18.8643,-9.2454,5.8613,0.012000
-0.1067,0.4802,0.8444,-19.0396,-10.8155,5.0305,0.012000
-0.1246,0.4700,0.8514,-20.0229,-15.0457,4.2454,0.012000
-0.1359,0.4780,0.8688,-21.3643,-13.7424,5.0076,0.012000
-0.1309,0.4753,0.8730,-22.0198,-11.7988,6.0213,0.012000
-0.1223,0.4675,0.8887,-21.2271,-9.6570,6.8369,0.012000
-0.1122,0.4669,0.8811,-20.2668,-6.7683,7.0046,0.012000
-0.0967,0.4515,0.8624,-19.2454,-6.5549,6.5015,0.012000
-0.0968,0.4518,0.8558,-20.2515,-7.3857,6.0442,0.012000
-0.0986,0.4503,0.8583,-21.3034,-8.8491,5.6707,0.012000
-0.1016,0.4481,0.8650,-22.1646,-10.0381,5.4573,0.012000
-0.1051,0.4438,0.8751,-22.7820,-11.2576,5.3582,0.012000
-0.1099,0.4341,0.8757,-22.4771,-11.1433,6.4253,0.012000
-0.0981,0.4321,0.8766,-22.7363,-10.0915,7.5229,0.012000
-0.0896,0.4315,0.8613,-24.6113,-9.5351,8.0564,0.012000
-0.0820,0.4252,0.8654,-26.6540,-10.6631,8.1174,0.012000
-0.0644,0.4172,0.8744,-31.5701,-13.3689,7.2866,0.012000
-0.0592,0.4106,0.8794,-34.1387,-17.5381,6.6463,0.012000
-0.0654,0.4001,0.8871,-35.8155,-22.6524,6.1585,0.012000
-0.0787,0.4033,0.9008,-37.9878,-25.8308,6.2348,0.012000
-0.0825,0.4056,0.9247,-40.8918,-26.2119,7.1570,0.012000
-0.0545,0.3837,0.9250,-43.7881,-22.4619,8.3155,0.012000
-0.0438,0.3772,0.9136,-43.8948,-22.3399,8.4909,0.012000
-0.0432,0.3694,0.9122,-44.6341,-23.5061,8.5899,0.012000
-0.0464,0.3596,0.9272,-45.9527,-25.2058,9.2226,0.012000
-0.0364,0.3564,0.9290,-47.3857,-25.8384,9.8399,0.012000
-0.0048,0.3383,0.9150,-49.8628,-27.1189,10.0076,0.012000
-0.0067,0.3295,0.9294,-50.8003,-27.6905,9.5503,0.012000
-0.0178,0.3268,0.9576,-52.5000,-25.7393,9.7027,0.012000
-0.0345,0.3029,0.9742,-56.1128,-21.7683,10.4116,0.012000
-0.0302,0.2980,0.9971,-56.1738,-18.6052,12.6753,0.012000
0.0325,0.2816,0.9928,-49.4893,-19.3369,14.4055,0.012000
0.0378,0.2764,0.9852,-48.4527,-18.4985,12.5381,0.012000
0.0289,0.2670,0.9830,-48.0945,-18.2241,11.1585,0.012000
0.0247,0.2535,0.9759,-47.8354,-18.6052,10.7317,0.012000
0.0189,0.2365,0.9745,-48.0564,-18.8948,11.1433,0.012000
0.0207,0.2325,0.9860,-48.0564,-19.3979,14.4970,0.012000
0.0488,0.2197,0.9784,-50.5183,-19.9924,15.1448,0.012000
0.0620,0.2117,0.9886,-52.0884,-20.2363,14.3902,0.012000
0.0457,0.2098,1.0097,-52.8125,-18.9329,13.2317,0.012000
0.0457,0.1892,0.9990,-53.2546,-15.9680,13.7729,0.012000
0.0551,0.1796,0.9834,-54.0320,-14.0473,14.3674,0.012000
0.0562,0.1735,0.9851,-54.7942,-12.6448,14.3293,0.012000
0.0522,0.1703,0.9866,-55.4345,-10.0762,14.1387,0.012000
0.0609,0.1603,0.9723,-55.5412,-8.0716,14.1997,0.012000
0.0542,0.1470,1.0089,-55.5335,-7.5762,14.5198,0.012000
0.0651,0.1404,1.0151,-56.2271,-10.2210,14.3445,0.012000
0.0719,0.1265,1.0135,-55.5107,-13.6662,14.1311,0.012000
0.0667,0.1159,0.9957,-54.0473,-14.1845,13.4451,0.012000
0.0666,0.1007,0.9706,-54.5960,-12.9268,12.7439,0.012000
0.0562,0.0818,0.9797,-60.6250,-13.8948,13.5899,0.012000
0.0580,0.0648,0.9854,-63.0869,-16.2500,14.8780,0.012000
0.0511,0.0540,1.0075,-64.3902,-17.5076,16.2348,0.012000
0.0535,0.0518,1.0125,-65.4268,-16.9207,17.6524,0.012000
0.0682,0.0429,1.0049,-66.4406,-16.9893,18.8186,0.012000
0.0939,0.0037,0.9694,-69.6875,-18.9253,19.0930,0.012000
0.0914,-0.0081,0.9769,-72.4085,-19.7027,18.9634,0.012000
0.0956,-0.0115,0.9930,-75.2515,-19.0168,19.1387,0.012000
0.1042,-0.0236,1.0081,-78.3537,-17.0808,19.4360,0.012000
0.1130,-0.0370,1.0199,-82.1037,-14.6723,19.8628,0.012000
0.1183,-0.0801,0.9874,-86.9055,-5.6936,19.3521,0.012000
0.0638,-0.1063,0.9810,-85.9299,-4.3979,19.4817,0.012000
0.0776,-0.0860,0.9781,-81.5701,-7.6143,21.2881,0.012000
0.1123,-0.1085,0.9893,-78.6357,-9.2302,23.0793,0.012000
0.1378,-0.1316,0.9856,-76.2195,-8.8796,23.4604,0.012000
0.1293,-0.1404,0.9969,-73.0335,-15.5564,20.1372,0.012000
0.1193,-0.1429,1.0117,-70.8232,-17.7210,18.2317,0.012000
0.1056,-0.1444,0.9927,-69.2302,-14.8323,17.2790,0.012000
0.0847,-0.1687,0.9608,-68.2698,-10.1982,18.0030,0.012000
0.0670,-0.1871,0.9492,-69.0549,-2.9421,23.1707,0.012000
0.0773,-0.2022,0.9439,-70.9604,0.2820,25.5107,0.012000
0.0941,-0.2139,0.9390,-72.6448,2.1265,26.8598,0.012000
0.1193,-0.2261,0.9357,-74.2226,0.1143,26.9741,0.012000
0.1392,-0.2471,0.9332,-74.8781,-6.4405,26.1128,0.012000
0.1337,-0.2755,0.9454,-74.2988,-15.5793,23.0716,0.012000
0.0831,-0.2922,0.9312,-75.4878,-14.5198,21.8902,0.012000
0.0622,-0.3211,0.9188,-77.8201,-12.4695,23.3689,0.012000
0.0630,-0.3347,0.9075,-81.0976,-9.6570,26.3643,0.012000
0.0784,-0.3479,0.9336,-84.4512,-9.5427,29.3216,0.012000
0.1305,-0.3700,0.9485,-86.3110,-11.7530,32.0655,0.012000
0.1436,-0.3932,0.9443,-84.8018,-12.4848,30.8994,0.012000
0.1407,-0.4109,0.9235,-82.5000,-12.6524,29.5808,0.012000
0.1149,-0.4252,0.8951,-81.0366,-12.0884,29.0930,0.012000
0.1123,-0.4368,0.8908,-82.2637,-11.6311,29.5198,0.012000
0.1479,-0.4724,0.8896,-85.1829,-14.5274,30.2896,0.012000
0.1627,-0.4872,0.8874,-85.5640,-18.1326,29.6189,0.012000
0.1754,-0.5047,0.8773,-86.3415,-19.1006,27.4695,0.012000
0.1584,-0.5128,0.8723,-87.9116,-18.3994,24.6341,0.012000
0.1034,-0.5233,0.9502,-88.9101,-17.0960,22.7744,0.012000
0.1133,-0.5337,0.9573,-82.5762,-12.2027,23.4985,0.012000
0.1261,-0.5463,0.9486,-76.6082,-11.4482,23.9253,0.012000
0.1365,-0.5648,0.9196,-71.0671,-11.0823,23.4909,0.012000
0.1391,-0.5822,0.8827,-66.1509,-10.4878,22.3171,0.012000
0.1041,-0.6123,0.8063,-65.4802,-8.9329,19.7790,0.012000
0.1084,-0.6277,0.7945,-68.3003,-9.9390,20.0991,0.012000
0.1215,-0.6339,0.7835,-70.3735,-10.4268,20.4954,0.012000
0.1218,-0.6337,0.7823,-73.8719,-11.7912,20.3506,0.012000
0.1340,-0.6453,0.7687,-77.9421,-16.1890,20.0686,0.012000
0.1319,-0.6679,0.7903,-77.8887,-20.7851,18.0564,0.012000
0.1293,-0.6786,0.7742,-75.9451,-19.2530,16.9284,0.012000
0.1310,-0.6838,0.7672,-73.8338,-17.7210,15.7851,0.012000
0.1260,-0.6933,0.7486,-72.4466,-16.2348,14.7104,0.012000
0.1326,-0.7072,0.7225,-71.6997,-16.5396,13.9405,0.012000
0.1295,-0.7315,0.6720,-71.3034,-19.2302,12.7439,0.012000
0.1333,-0.7397,0.6630,-72.7744,-20.3430,11.6692,0.012000
0.1383,-0.7405,0.6541,-74.6418,-21.0137,10.4954,0.012000
0.1273,-0.7486,0.6545,-75.5564,-21.7683,9.7713,0.012000
0.1135,-0.7465,0.6731,-75.5793,-21.4787,9.8857,0.012000
0.0997,-0.7560,0.6677,-71.3110,-13.7881,10.4268,0.012000
0.1038,-0.7610,0.6374,-67.8963,-10.7927,10.7165,0.012000
0.1147,-0.7777,0.6113,-64.2683,-9.1921,11.0899,0.012000
0.1176,-0.7864,0.5890,-62.1418,-8.1631,11.0061,0.012000
0.1412,-0.7854,0.5984,-62.2332,-8.8643,10.2287,0.012000
0.1464,-0.7811,0.6163,-61.3338,-9.7713,8.6890,0.012000
0.1326,-0.7903,0.6050,-57.9573,-7.3780,8.4909,0.012000
0.1174,-0.7976,0.5669,-52.9573,-5.0152,8.8491,0.012000
0.1063,-0.8168,0.5266,-48.3003,-4.9085,10.2134,0.012000
0.1191,-0.8283,0.4896,-45.9832,-7.2790,12.6220,0.012000
0.1378,-0.8218,0.5004,-48.1402,-7.6982,12.2332,0.012000
0.1657,-0.8298,0.5136,-50.6402,-6.9436,11.0595,0.012000
0.1801,-0.8392,0.5106,-52.2027,-4.6341,9.1692,0.012000
0.1658,-0.8423,0.4909,-51.9207,-3.0793,7.1875,0.012000
0.1418,-0.8499,0.4733,-45.7774,-4.9924,2.4238,0.012000
0.1219,-0.8687,0.4693,-43.2088,-8.0564,0.5259,0.012000
0.1149,-0.8741,0.4698,-42.1570,-11.2195,0.0610,0.012000
0.1125,-0.8665,0.4766,-42.8049,-13.4756,-0.2363,0.012000
0.1095,-0.8672,0.4866,-43.4680,-15.2210,-1.0899,0.012000
0.1180,-0.8683,0.4957,-42.4619,-14.8476,-1.5701,0.012000
0.1154,-0.8780,0.4711,-39.9009,-13.6052,-2.0122,0.012000
0.1226,-0.8826,0.4568,-36.7530,-14.6799,-2.2561,0.012000
0.1362,-0.8876,0.4586,-33.6128,-16.7302,-2.8887,0.012000
0.1381,-0.8937,0.4718,-32.3399,-18.7119,-3.8262,0.012000
0.1268,-0.8726,0.5114,-32.4466,-17.8887,-5.1677,0.012000
0.1141,-0.8704,0.4927,-29.8628,-15.0762,-5.1601,0.012000
0.1091,-0.8708,0.4737,-24.7409,-13.0716,-4.6723,0.012000
0.1202,-0.8764,0.4475,-18.8567,-11.0213,-4.4665,0.012000
0.1385,-0.8964,0.4208,-14.0930,-9.4055,-4.4055,0.012000
0.1650,-0.9049,0.3849,-11.8902,-11.5701,-3.1555,0.012000
0.1715,-0.9062,0.3882,-13.6966,-14.4741,-3.6204,0.012000
0.1771,-0.9031,0.3893,-16.2805,-17.2180,-4.2302,0.012000
0.1716,-0.9109,0.3912,-18.4223,-18.5442,-5.0000,0.012000
0.1381,-0.8996,0.4332,-18.1860,-12.9726,-5.8384,0.012000
0.1411,-0.8969,0.4500,-16.0213,-7.9268,-5.0457,0.012000
0.1354,-0.9022,0.4525,-11.6921,-4.1082,-3.3765,0.012000
0.1357,-0.9095,0.4501,-5.9451,-1.7454,-1.1128,0.012000
0.1425,-0.9137,0.4455,0.2058,0.0686,0.4421,0.012000
0.1743,-0.9288,0.4042,7.3628,3.6890,0.0457,0.012000
0.1833,-0.9196,0.3964,7.1265,3.2317,-1.2881,0.012000
0.1912,-0.9158,0.3984,5.2058,1.3262,-3.0869,0.012000
0.1952,-0.9186,0.4078,2.9421,-0.9985,-5.1905,0.012000
0.1789,-0.9133,0.4296,1.3186,-2.4543,-7.0960,0.012000
0.1062,-0.9111,0.4473,3.9710,-3.0564,-6.4024,0.012000
0.1255,-0.9016,0.4709,9.4893,-2.3171,-4.3826,0.012000
0.1461,-0.8998,0.4714,13.9405,0.4726,-3.2393,0.012000
0.1497,-0.8928,0.4568,15.9604,3.3765,-3.2927,0.012000
0.1600,-0.8978,0.4413,16.7378,5.3735,-4.2454,0.012000
0.1697,-0.9169,0.4081,20.2210,5.8537,-5.6326,0.012000
0.1707,-0.9103,0.4108,21.7683,3.6509,-5.5030,0.012000
0.1688,-0.9030,0.4156,21.5701,1.9131,-4.9162,0.012000
0.1658,-0.8923,0.4227,20.5412,1.6540,-4.6875,0.012000
0.1760,-0.8890,0.4225,18.5976,1.3796,-5.1067,0.012000
0.1911,-0.8879,0.4272,17.9802,-2.0198,-6.7149,0.012000
0.1820,-0.8862,0.4061,18.6433,-3.1860,-7.6524,0.012000
0.1779,-0.8879,0.4012,19.2454,-5.1143,-8.0640,0.012000
0.1829,-0.8773,0.4056,19.0625,-6.8598,-8.2546,0.012000
0.1661,-0.8779,0.4051,15.0457,-13.1479,-8.2470,0.012000
0.1527,-0.8826,0.4205,12.9192,-15.1753,-7.4085,0.012000
0.1505,-0.8900,0.4223,12.2104,-13.9634,-5.8765,0.012000
0.1575,-0.8872,0.4360,12.0122,-11.7683,-4.3216,0.012000
0.1734,-0.8847,0.4485,11.4101,-8.7043,-3.7500,0.012000
0.1894,-0.8773,0.4530,11.7302,-6.0823,-3.7576,0.012000
0.1934,-0.8807,0.4481,12.9954,-6.0137,-4.3445,0.012000
0.1959,-0.8797,0.4427,14.3979,-6.5777,-5.1143,0.012000
0.1967,-0.8787,0.4451,15.6098,-7.6601,-6.0366,0.012000
0.1920,-0.8747,0.4554,15.1601,-7.1113,-6.7226,0.012000
0.1807,-0.8751,0.4621,15.5488,-1.1509,-6.6616,0.012000
0.1808,-0.8671,0.4740,16.6616,0.2134,-6.0747,0.012000
0.1918,-0.8633,0.4944,17.4238,-0.5640,-5.1601,0.012000
0.1974,-0.8645,0.5084,19.4055,-0.5335,-4.5503,0.012000
0.1970,-0.8564,0.5236,22.5686,2.7439,-4.5960,0.012000
0.2005,-0.8564,0.5049,29.9466,11.9131,-6.5701,0.012000
0.1974,-0.8608,0.4811,32.5534,12.6143,-7.3476,0.012000
0.1948,-0.8619,0.4640,33.4756,10.4268,-7.3704,0.012000
0.1942,-0.8574,0.4694,32.9802,8.1326,-7.4238,0.012000
0.1918,-0.8478,0.4911,31.0366,7.5457,-7.3323,0.012000
0.1749,-0.8387,0.5298,29.4741,13.7729,-6.1662,0.012000
0.1818,-0.8306,0.5560,31.5168,18.4223,-5.0381,0.012000
0.1981,-0.8359,0.5539,34.7866,22.9116,-4.3750,0.012000
0.1992,-0.8422,0.5502,37.9497,25.1677,-4.5046,0.012000
0.1924,-0.8400,0.5051,40.1753,26.2881,-4.7942,0.012000
0.1979,-0.8363,0.4951,40.0000,24.3521,-4.9009,0.012000
0.2208,-0.8168,0.5187,35.7317,23.3079,-5.3582,0.012000
0.2284,-0.8051,0.5651,32.0427,22.0351,-6.3948,0.012000
0.2087,-0.8010,0.6168,31.2195,19.5351,-7.8735,0.012000
0.1556,-0.7900,0.6360,43.2088,19.9390,-12.1418,0.012000
0.1609,-0.8073,0.6206,48.8338,24.2912,-10.0381,0.012000
0.1871,-0.8069,0.5966,52.1037,26.3643,-8.7957,0.012000
0.1757,-0.7905,0.5889,52.0351,27.4924,-8.6890,0.012000
0.1744,-0.7867,0.5964,48.2088,27.6296,-8.6052,0.012000
0.1874,-0.7646,0.6350,44.6341,24.9695,-7.1799,0.012000
0.1894,-0.7521,0.6473,46.1280,23.6052,-7.4695,0.012000
0.1895,-0.7496,0.6606,47.7439,23.3155,-8.4604,0.012000
0.1729,-0.7474,0.6516,49.3598,24.2835,-9.4665,0.012000
0.1430,-0.7383,0.6536,49.5732,24.5732,-9.4055,0.012000
0.1422,-0.7216,0.6636,48.9939,24.4436,-6.8826,0.012000
0.1511,-0.7177,0.6666,48.6966,25.2134,-6.1433,0.012000
0.1642,-0.7183,0.6765,48.6738,24.3979,-5.8765,0.012000
0.1699,-0.7141,0.6873,48.1021,23.1326,-5.9832,0.012000
0.1726,-0.7073,0.6862,47.2561,21.2576,-6.5549,0.012000
0.1467,-0.6987,0.6987,45.9527,18.7043,-6.3034,0.012000
0.1363,-0.6866,0.7236,45.4802,19.7104,-5.7317,0.012000
0.1509,-0.6794,0.7501,45.8079,21.1357,-5.5030,0.012000
0.1714,-0.6810,0.7635,46.6540,20.9527,-6.5854,0.012000
0.1587,-0.6711,0.7587,47.9421,20.0000,-8.1402,0.012000
0.1404,-0.6683,0.7645,50.6555,19.3521,-10.0000,0.012000
0.1304,-0.6646,0.7479,51.5701,20.0915,-9.5884,0.012000
0.1287,-0.6489,0.7593,51.1433,18.5442,-7.8277,0.012000
0.1351,-0.6506,0.7772,49.9466,18.1250,-7.1646,0.012000
0.1466,-0.6288,0.7859,49.4893,17.5229,-6.4939,0.012000
0.1502,-0.6227,0.7886,49.9695,14.3293,-6.4253,0.012000
0.1469,-0.6147,0.7775,50.0076,12.4009,-6.6463,0.012000
0.1380,-0.6033,0.7772,49.8323,11.5473,-7.0579,0.012000
0.1273,-0.5971,0.7814,49.1616,11.9284,-7.6601,0.012000
0.1251,-0.5872,0.8105,48.2393,10.5716,-6.5473,0.012000
0.1207,-0.5903,0.8105,48.8110,10.2591,-6.1280,0.012000
0.1105,-0.5788,0.8191,49.4741,9.9695,-5.5869,0.012000
0.1071,-0.5711,0.8212,50.1524,9.5046,-5.0762,0.012000
0.1141,-0.5634,0.8279,50.7317,10.2820,-4.6799,0.012000
0.1230,-0.5568,0.8187,51.4482,10.7698,-4.1845,0.012000
0.1325,-0.5480,0.8119,51.5015,9.6265,-4.3521,0.012000
0.1263,-0.5388,0.8103,50.2134,5.5564,-4.5351,0.012000
0.1176,-0.5354,0.8334,48.5671,1.2576,-4.7942,0.012000
0.1169,-0.5283,0.8485,47.8277,-0.2591,-5.4116,0.012000
0.1214,-0.5135,0.8873,49.5198,3.4451,-7.6677,0.012000
0.1055,-0.5053,0.8902,52.1189,8.2698,-8.6280,0.012000
0.0992,-0.4974,0.9003,53.1860,11.7835,-8.4070,0.012000
0.1149,-0.4926,0.8997,53.8948,14.2226,-7.2866,0.012000
0.1339,-0.4787,0.8991,54.2912,15.8232,-6.4177,0.012000
0.1503,-0.4716,0.8995,52.9421,12.9497,-7.3552,0.012000
0.1453,-0.4670,0.9000,53.4756,9.0854,-9.0396,0.012000
0.1292,-0.4564,0.8952,52.0274,4.8933,-10.4192,0.012000
0.1094,-0.4501,0.8985,50.8079,1.7607,-11.0366,0.012000
0.0780,-0.4256,0.9431,46.1052,6.8750,-9.0930,0.012000
0.0884,-0.4175,0.9529,45.0838,12.3552,-7.3018,0.012000
0.1095,-0.4050,0.9675,46.4405,15.1220,-6.1509,0.012000
0.1313,-0.3946,0.9703,49.5046,16.4710,-7.0122,0.012000
0.1362,-0.3895,0.9512,53.7729,16.1204,-9.3750,0.012000
0.1198,-0.3807,0.8901,55.9680,9.7409,-12.9040,0.012000
0.1051,-0.3820,0.8615,53.6357,7.4162,-13.2546,0.012000
0.0949,-0.3659,0.8481,48.8948,6.0213,-12.2332,0.012000
0.1016,-0.3632,0.8484,41.5473,4.3750,-10.8308,0.012000
0.1157,-0.3450,0.8711,34.7256,0.6326,-9.5732,0.012000
0.1153,-0.3305,0.9300,31.4101,-7.5076,-12.2409,0.012000
0.0992,-0.3154,0.9478,32.0655,-6.8979,-13.4909,0.012000
0.0898,-0.3150,0.9341,32.1037,-5.1753,-13.4832,0.012000
0.0897,-0.3120,0.9317,31.8750,-2.8354,-12.3933,0.012000
0.1017,-0.3061,0.9550,31.2043,1.4634,-11.3491,0.012000
0.1461,-0.2963,0.9733,32.5762,5.2973,-11.6311,0.012000
0.1514,-0.2925,0.9718,34.6646,3.4223,-14.4588,0.012000
0.1287,-0.2838,0.9722,36.4863,1.1509,-17.3704,0.012000
0.1019,-0.2843,0.9902,37.4924,0.8994,-19.3064,0.012000
0.0876,-0.2770,0.9996,37.3095,4.5503,-16.0290,0.012000
0.0919,-0.2578,0.9590,39.5503,11.1585,-10.7012,0.012000
0.1168,-0.2568,0.9384,39.2607,9.8476,-10.1448,0.012000
0.1274,-0.2519,0.9442,37.2561,7.1037,-10.3811,0.012000
0.1212,-0.2438,0.9540,34.2226,4.7332,-10.8308,0.012000
0.1121,-0.2239,0.9968,32.3323,3.0716,-11.0213,0.012000
0.1033,-0.2155,1.0010,33.4680,5.7088,-10.8841,0.012000
0.1048,-0.2125,0.9967,35.4268,8.1174,-10.5183,0.012000
0.1134,-0.2128,0.9841,36.6006,9.6951,-9.6875,0.012000
0.1169,-0.2103,0.9645,36.0213,9.7713,-9.2988,0.012000
0.1241,-0.1986,0.9551,31.1357,6.9970,-8.9101,0.012000
0.1314,-0.1940,0.9496,28.3689,8.4223,-9.4665,0.012000
0.1203,-0.1825,0.9523,25.5564,10.3430,-10.3354,0.012000
0.1063,-0.1797,0.9866,23.9253,13.8948,-10.5412,0.012000
0.0939,-0.1764,1.0073,24.0701,21.7073,-10.3963,0.012000
0.0908,-0.1694,1.0397,27.1418,39.0625,-8.8338,0.012000
0.0938,-0.1672,1.0544,29.6037,49.0320,-8.2927,0.012000
0.1030,-0.1627,1.0160,33.0107,61.9741,-8.9482,0.012000
0.0977,-0.1544,0.9856,34.9543,72.0656,-10.1905,0.012000
0.0986,-0.1531,0.9717,35.8232,77.6296,-11.2500,0.012000
0.0808,-0.1434,0.8970,32.8811,84.8781,-14.6341,0.012000
0.0605,-0.1392,0.8818,30.1448,82.3323,-15.6936,0.012000
-0.0108,-0.1252,0.9230,25.4421,77.7668,-15.1448,0.012000
-0.0724,-0.1304,0.9689,20.5640,78.2469,-13.3460,0.012000
-0.0812,-0.1217,1.0181,18.2546,83.5061,-9.3674,0.012000
-0.0134,-0.1356,1.0659,21.2576,108.6281,-9.4284,0.012000
-0.0318,-0.1042,1.0304,23.9482,116.9436,-13.0945,0.012000
-0.0503,-0.1123,0.9879,27.9878,114.4131,-15.0457,0.012000
-0.0966,-0.1317,0.9421,29.2073,108.7729,-16.4253,0.012000
-0.1922,-0.1139,0.9580,20.3963,94.0625,-13.7805,0.012000
-0.2256,-0.1016,1.0209,16.0747,93.1402,-11.4710,0.012000
-0.2249,-0.0886,1.0992,16.7835,101.0594,-8.0945,0.012000
-0.1971,-0.0771,1.0582,23.4527,111.9512,-6.3186,0.012000
-0.1467,-0.0787,1.0272,27.7058,116.1662,-7.6601,0.012000
-0.2029,-0.1190,0.9298,44.1921,113.2317,-19.6951,0.012000
-0.2756,-0.0362,0.9261,37.4771,99.2073,-19.5884,0.012000
-0.3327,-0.0677,0.9308,30.2973,79.8247,-15.4421,0.012000
-0.3600,-0.0658,0.9561,29.4970,72.6601,-10.6860,0.012000
-0.3463,-0.0556,0.9460,26.2805,75.8308,-7.6982,0.012000
-0.3016,-0.0418,0.8812,20.7698,78.8567,-6.5015,0.012000
-0.2899,-0.0397,0.8754,14.2835,75.0762,-8.9101,0.012000
-0.3038,-0.0352,0.8995,9.4055,69.2378,-12.7515,0.012000
-0.3370,-0.0508,0.9266,10.0229,63.5061,-15.9756,0.012000
-0.3773,-0.0356,0.9065,17.8277,60.9146,-17.1723,0.012000
-0.4141,-0.0482,0.8503,13.3689,47.7439,-11.4405,0.012000
-0.4337,-0.0536,0.8583,11.4710,47.2713,-9.6799,0.012000
-0.4342,-0.0240,0.9087,4.4588,54.1845,-8.5823,0.012000
-0.4299,-0.0449,0.8852,-0.0534,65.9832,-8.1250,0.012000
-0.4286,-0.0433,0.8661,-0.2363,75.9070,-7.8963,0.012000
-0.3701,-0.0176,0.8295,1.2271,78.2241,-11.2195,0.012000
-0.3548,-0.0365,0.8066,-1.3034,67.9268,-15.6174,0.012000
-0.4157,-0.0555,0.7742,-3.4451,57.4466,-21.0823,0.012000
-0.5212,-0.0634,0.8008,-8.0945,51.1509,-23.4223,0.012000
-0.6091,-0.0471,0.8245,-9.7256,54.0396,-20.3887,0.012000
-0.5848,-0.0536,0.8014,-8.6509,68.2774,-8.9329,0.012000
-0.5516,-0.0456,0.8166,-10.5183,77.8735,-7.9040,0.012000
-0.5555,-0.0488,0.8220,-16.3262,90.1982,-9.6037,0.012000
-0.5699,-0.0356,0.8422,-17.9421,94.1235,-10.1905,0.012000
-0.5089,-0.0364,0.8351,-9.9619,66.8521,-8.6662,0.012000
-0.5320,-0.0564,0.8380,-6.1128,52.7515,-10.4192,0.012000
-0.5887,-0.0551,0.8190,-2.7363,46.3262,-12.3018,0.012000
-0.6472,-0.0620,0.8095,-0.4802,43.8948,-12.3171,0.012000
-0.6766,-0.0578,0.8185,1.1890,43.3079,-9.0015,0.012000
-0.6575,-0.0654,0.8043,0.8079,53.9253,-2.6524,0.012000
-0.6341,-0.0623,0.8036,0.2058,59.3979,-1.3796,0.012000
-0.6220,-0.0605,0.7889,1.5320,62.0046,-2.5991,0.012000
-0.6143,-0.0550,0.7802,3.2165,57.6220,-3.0335,0.012000
-0.6231,-0.0583,0.7896,5.6326,49.4970,-3.4832,0.012000
-0.6813,-0.0607,0.7651,10.7393,37.2866,-2.7134,0.012000
-0.6880,-0.0560,0.7617,11.4101,35.4878,-0.9223,0.012000
-0.6884,-0.0689,0.7419,10.9909,38.5061,-0.0686,0.012000
-0.6934,-0.0719,0.7081,9.8399,41.7378,0.8537,0.012000
-0.6916,-0.0613,0.6976,7.7134,42.0274,1.8293,0.012000
-0.6833,-0.0540,0.6938,3.1631,36.9893,2.6982,0.012000
-0.6847,-0.0521,0.6884,1.6616,33.4832,3.1631,0.012000
-0.6924,-0.0602,0.6753,1.3338,31.4634,3.2774,0.012000
-0.7156,-0.0613,0.6975,0.2439,31.6463,2.9497,0.012000
-0.7309,-0.0509,0.7174,-0.0229,36.1433,2.9497,0.012000
-0.7124,-0.0464,0.6814,5.0686,44.9085,3.2317,0.012000
-0.6906,-0.0524,0.6480,7.2561,40.3506,3.2165,0.012000
-0.6933,-0.0553,0.6213,6.8064,34.0777,1.9512,0.012000
-0.7097,-0.0528,0.6118,3.4909,27.7134,1.1966,0.012000
-0.7220,-0.0575,0.6288,-4.1311,18.5290,0.6860,0.012000
-0.7277,-0.0494,0.6354,-6.1357,16.3643,0.1753,0.012000
-0.7227,-0.0515,0.6470,-6.5930,14.1845,-0.7546,0.012000
-0.7227,-0.0497,0.6642,-5.3582,12.5305,-1.8140,0.012000
-0.7302,-0.0540,0.6657,-3.1707,11.5091,-2.8125,0.012000
-0.7719,-0.0516,0.6599,0.1296,12.4238,-2.2409,0.012000
-0.7734,-0.0580,0.6599,0.8079,14.8857,-0.1372,0.012000
-0.7740,-0.0620,0.6442,1.3262,19.0473,1.3110,0.012000
-0.7535,-0.0569,0.6472,0.6555,21.9284,2.4162,0.012000
-0.7320,-0.0605,0.6335,0.3430,24.9238,1.6845,0.012000
-0.7386,-0.0616,0.6177,-0.0915,22.0122,-0.1677,0.012000
-0.7324,-0.0614,0.6161,-0.2134,18.3155,-1.4863,0.012000
-0.7407,-0.0611,0.6098,-0.9223,13.6509,-2.5000,0.012000
-0.7658,-0.0601,0.6205,-1.5777,8.3689,-2.1723,0.012000
-0.7808,-0.0604,0.6393,-0.9223,6.3720,-1.0518,0.012000
-0.7843,-0.0570,0.6390,1.8216,11.7226,1.6159,0.012000
-0.7629,-0.0541,0.6245,2.9954,13.4375,2.3704,0.012000
-0.7556,-0.0527,0.6010,3.7576,12.4162,2.3399,0.012000
-0.7482,-0.0522,0.5982,4.1235,9.2073,1.9741,0.012000
-0.7622,-0.0413,0.6017,3.7119,6.1128,1.0595,0.012000
-0.7535,-0.0425,0.6100,1.8293,-3.1250,0.1143,0.012000
-0.7630,-0.0520,0.6183,0.9680,-5.4421,-1.3110,0.012000
-0.7873,-0.0412,0.6332,0.0457,-4.9543,-1.8369,0.012000
-0.7926,-0.0415,0.6411,0.4878,-3.2088,0.4421,0.012000
-0.7710,-0.0403,0.6266,3.7576,4.1006,3.4375,0.012000
-0.7603,-0.0457,0.6005,4.1235,6.9588,3.0793,0.012000
-0.7650,-0.0485,0.5854,4.1311,7.0351,2.1341,0.012000
-0.7643,-0.0451,0.5878,2.7210,4.6875,1.7454,0.012000
-0.7626,-0.0444,0.5967,0.2287,1.2957,1.7835,0.012000
-0.7703,-0.0463,0.6017,-3.6357,-5.1372,1.5701,0.012000
-0.7687,-0.0469,0.6058,-4.4436,-7.3628,1.0899,0.012000
-0.7662,-0.0477,0.6139,-5.1982,-9.7485,0.3735,0.012000
-0.7788,-0.0483,0.6347,-6.2805,-11.4253,0.1220,0.012000
-0.7862,-0.0509,0.6544,-6.4482,-11.1966,0.4040,0.012000
-0.7783,-0.0530,0.6529,-3.7500,-8.5366,1.5015,0.012000
-0.7698,-0.0562,0.6397,-2.0960,-8.1174,1.9436,0.012000
-0.7620,-0.0598,0.6312,-1.7912,-8.5442,1.8064,0.012000
-0.7618,-0.0557,0.6425,-2.8506,-10.5183,2.0808,0.012000
-0.7579,-0.0544,0.6565,-3.4451,-12.3704,2.0274,0.012000
-0.7607,-0.0605,0.6534,-2.2180,-16.1433,1.5168,0.012000
-0.7630,-0.0638,0.6709,-1.1509,-16.8598,1.1814,0.012000
-0.7650,-0.0598,0.6865,0.3125,-14.4436,0.9527,0.012000
-0.7614,-0.0599,0.6823,2.6372,-10.2744,0.5945,0.012000
-0.7548,-0.0594,0.6659,4.5960,-7.0655,0.2668,0.012000
-0.7217,-0.0577,0.6375,5.9832,-9.5122,-0.1372,0.012000
-0.7170,-0.0587,0.6401,4.5655,-11.7912,-1.2348,0.012000
-0.7067,-0.0599,0.6235,2.4924,-14.2302,-3.2622,0.012000
-0.7112,-0.0615,0.6284,-0.2591,-18.7424,-4.8628,0.012000
-0.7335,-0.0579,0.6414,-3.3308,-27.8125,-6.2729,0.012000
-0.7409,-0.0537,0.6651,-4.1387,-31.3186,-5.9451,0.012000
-0.7479,-0.0536,0.6797,-3.8491,-32.5838,-5.1753,0.012000
-0.7478,-0.0518,0.6976,-2.8201,-30.7088,-3.6052,0.012000
-0.7393,-0.0573,0.6942,-1.2195,-25.8232,-2.9116,0.012000
-0.6874,-0.0505,0.6774,0.1982,-23.6357,-3.2088,0.012000
-0.6773,-0.0589,0.6637,0.4040,-26.9207,-4.2607,0.012000
-0.6876,-0.0556,0.6640,-0.7088,-32.2104,-5.2134,0.012000
-0.6968,-0.0539,0.6755,-1.7607,-36.6921,-5.8537,0.012000
-0.7123,-0.0533,0.6984,-2.8049,-39.0015,-5.0076,0.012000
-0.6816,-0.0463,0.7319,-1.8064,-36.2043,-3.3003,0.012000
-0.6583,-0.0503,0.7184,0.0762,-35.1524,-3.8415,0.012000
-0.6437,-0.0571,0.6956,1.6768,-36.5168,-5.0381,0.012000
-0.6289,-0.0560,0.6768,1.6540,-40.1220,-6.5930,0.012000
-0.6433,-0.0601,0.6706,-1.1128,-45.9146,-7.3476,0.012000
-0.7089,-0.0503,0.7667,-7.9878,-52.5610,-3.3003,0.012000
-0.7001,-0.0464,0.8149,-6.6845,-45.2896,0.4192,0.012000
-0.6716,-0.0526,0.8134,-1.7912,-33.1402,2.4543,0.012000
-0.6353,-0.0508,0.7882,3.6204,-23.2622,2.6601,0.012000
-0.6001,-0.0499,0.7510,6.9665,-21.2424,2.1341,0.012000
-0.5666,-0.0647,0.6904,6.5320,-36.0290,-1.5777,0.012000
-0.5782,-0.0600,0.6941,2.1189,-46.6692,-3.3613,0.012000
-0.5842,-0.0553,0.7092,-3.0564,-55.3506,-5.0686,0.012000
-0.6090,-0.0551,0.7342,-7.4543,-61.3186,-5.5793,0.012000
-0.6000,-0.0562,0.7954,-10.6555,-62.9192,-3.3994,0.012000
-0.5844,-0.0592,0.8033,-9.7485,-60.9451,-2.5229,0.012000
-0.5762,-0.0670,0.7964,-8.8872,-60.0991,-1.9131,0.012000
-0.5781,-0.0704,0.8135,-8.1936,-60.0000,-1.3186,0.012000
-0.5627,-0.0720,0.8407,-7.1799,-56.8064,-2.0046,0.012000
-0.5358,-0.0619,0.8580,-4.7180,-51.0366,-3.6280,0.012000
-0.5150,-0.0761,0.8395,-1.3720,-50.7546,-4.1387,0.012000
-0.5057,-0.0811,0.8221,0.0457,-52.9573,-4.8095,0.012000
-0.5041,-0.0793,0.8172,-0.5793,-56.5701,-5.1829,0.012000
-0.4963,-0.0811,0.8146,-3.4223,-60.8765,-5.3049,0.012000
-0.5043,-0.0795,0.8799,-7.6372,-69.8094,-3.8872,0.012000
-0.5003,-0.0734,0.9333,-6.5396,-68.3384,-2.8354,0.012000
-0.4744,-0.0726,0.9468,-2.4924,-60.8079,-2.3399,0.012000
-0.4573,-0.0840,0.9178,1.8979,-51.6159,-2.3780,0.012000
-0.4405,-0.0904,0.8813,5.7546,-46.4710,-3.0716,0.012000
-0.3917,-0.0937,0.8846,5.2515,-50.7241,-4.4817,0.012000
-0.3851,-0.0958,0.8676,3.2622,-55.4802,-6.2652,0.012000
-0.3755,-0.0897,0.8618,1.0137,-62.0503,-7.6524,0.012000
-0.3647,-0.0963,0.8625,-1.1738,-67.6753,-9.2759,0.012000
-0.3694,-0.0981,0.8676,-3.7119,-71.8064,-10.5335,0.012000
-0.3929,-0.0823,0.9455,-7.6677,-74.5274,-9.4588,0.012000
-0.3724,-0.0835,0.9865,-6.3491,-70.4268,-7.7515,0.012000
-0.3512,-0.0896,0.9756,-2.8735,-64.1006,-6.8902,0.012000
-0.3217,-0.0915,0.9457,1.0290,-59.0168,-7.5838,0.012000
-0.2827,-0.0996,0.8721,3.2393,-57.4009,-9.2683,0.012000
-0.2844,-0.1048,0.8822,-0.2591,-67.2790,-11.6845,0.012000
-0.2839,-0.0945,0.9115,-3.7195,-74.7409,-11.9512,0.012000
-0.2982,-0.1021,0.9460,-6.3186,-82.0351,-10.7088,0.012000
-0.2913,-0.0972,0.9919,-5.7012,-85.9146,-7.8125,0.012000
-0.2498,-0.0971,0.9678,-0.4954,-79.9162,-4.5960,0.012000
-0.2228,-0.0981,0.9420,0.0991,-76.9817,-4.7637,0.012000
-0.1887,-0.0997,0.9383,-1.4863,-76.6311,-5.7774,0.012000
-0.1614,-0.0991,0.9393,-3.6585,-79.7180,-7.8049,0.012000
-0.1378,-0.1006,0.9382,-5.3887,-86.4787,-10.4802,0.012000
-0.1305,-0.1141,0.9481,-4.8171,-105.2591,-13.9634,0.012000
-0.1190,-0.1030,0.9388,-6.8216,-113.0716,-14.4055,0.012000
-0.1051,-0.1091,0.9312,-11.0366,-120.0610,-14.1463,0.012000
-0.0920,-0.1204,0.9240,-16.2729,-125.7546,-13.0412,0.012000
-0.0804,-0.1259,0.9598,-20.3887,-130.2896,-10.6784,0.012000
-0.0138,-0.1241,1.0524,-22.4162,-124.4360,-5.9604,0.012000
-0.0024,-0.1243,1.0697,-21.0213,-119.4360,-4.9771,0.012000
0.0115,-0.1328,1.0706,-18.0259,-114.5656,-3.7652,0.012000
0.0303,-0.1378,1.0448,-14.4665,-109.0701,-3.0107,0.012000
0.0602,-0.1481,1.0043,-11.7607,-105.0686,-2.8430,0.012000
0.1172,-0.1512,0.9689,-10.6326,-105.1296,-2.6601,0.012000
0.1373,-0.1605,0.9594,-11.0366,-105.8003,-4.1159,0.012000
0.1422,-0.1573,0.9554,-11.6921,-106.9817,-4.9009,0.012000
0.1433,-0.1567,0.9402,-11.5168,-108.1707,-4.6723,0.012000
0.1722,-0.1467,0.9464,-10.8918,-109.6646,-3.2165,0.012000
0.2023,-0.1428,0.9449,-12.1113,-107.8659,-0.5335,0.012000
0.2424,-0.1472,0.9345,-12.2942,-104.8399,-0.4954,0.012000
0.2704,-0.1488,0.9380,-11.5473,-102.1341,-1.4101,0.012000
0.2816,-0.1478,0.9424,-10.6174,-99.4360,-2.5229,0.012000
0.2966,-0.1567,0.9322,-9.7790,-95.6631,-3.0030,0.012000
0.3010,-0.1570,0.9344,-8.4604,-93.5594,-2.5381,0.012000
0.3179,-0.1558,0.9382,-8.1021,-91.1433,-2.1037,0.012000
0.3397,-0.1555,0.9301,-8.6662,-89.3216,-1.3338,0.012000
0.3570,-0.1544,0.9125,-8.6509,-89.1006,-0.6402,0.012000
0.3808,-0.1676,0.8906,-8.2927,-89.4969,0.2210,0.012000
0.4017,-0.1660,0.8844,-10.3201,-89.3902,0.7165,0.012000
0.4227,-0.1619,0.8874,-12.3399,-90.0762,0.7774,0.012000
0.4405,-0.1625,0.8978,-13.1021,-92.6906,0.7927,0.012000
0.4528,-0.1708,0.9166,-12.3018,-95.7622,0.7851,0.012000
0.4542,-0.1975,0.9034,-8.9024,-94.0091,1.7912,0.012000
0.4570,-0.2033,0.8939,-7.5686,-89.3674,4.7409,0.012000
0.4756,-0.1755,0.8641,-7.3323,-84.2835,8.6128,0.012000
0.5084,-0.1788,0.8440,-7.7896,-80.8689,11.1433,0.012000
0.5471,-0.1887,0.8304,-9.0625,-80.5183,12.2256,0.012000
0.6069,-0.2112,0.8163,-12.6829,-86.0290,10.4421,0.012000
0.5714,-0.2086,0.7990,-15.0915,-90.1601,9.1616,0.012000
0.5413,-0.2040,0.7904,-17.7973,-92.8277,9.8933,0.012000
0.5414,-0.2005,0.7870,-19.7027,-92.7668,12.3552,0.012000
0.6107,-0.2205,0.8334,-18.3841,-91.1281,14.4970,0.012000
0.6321,-0.2183,0.8537,-10.2058,-81.4634,15.0457,0.012000
0.6614,-0.2130,0.8278,-6.1585,-74.0854,13.5976,0.012000
0.6907,-0.2300,0.7922,-2.8582,-70.4878,11.5930,0.012000
0.7012,-0.2559,0.7515,-1.7759,-70.1372,10.2287,0.012000
0.6951,-0.2560,0.6663,-4.2835,-72.8277,11.3948,0.012000
0.6980,-0.2532,0.6769,-7.1341,-78.9863,13.6966,0.012000
0.7020,-0.2431,0.7355,-9.1159,-82.9268,15.4802,0.012000
0.7365,-0.2278,0.7598,-10.0229,-80.0305,14.9848,0.012000
0.7612,-0.2222,0.7642,-9.7409,-74.0777,12.5000,0.012000
0.7231,-0.2450,0.7457,-7.0046,-61.3186,7.0808,0.012000
0.7089,-0.2355,0.7243,-2.8049,-51.9970,5.3811,0.012000
0.7235,-0.2448,0.6769,1.1966,-43.9482,4.5503,0.012000
0.7564,-0.2751,0.5964,2.3704,-40.6707,5.2058,0.012000
0.7554,-0.3068,0.4814,-2.0884,-48.0869,6.5625,0.012000
0.7177,-0.2672,0.5826,-17.7058,-86.8064,16.0899,0.012000
0.6917,-0.2358,0.6644,-22.9345,-97.7515,21.6616,0.012000
0.6806,-0.2059,0.7304,-23.0564,-96.5625,26.0671,0.012000
0.7007,-0.2187,0.7650,-18.8643,-83.8796,28.4070,0.012000
0.7443,-0.2341,0.7051,-10.4649,-64.0244,26.9970,0.012000
0.8286,-0.2924,0.5748,8.8796,-41.4558,15.9756,0.012000
0.8234,-0.2901,0.6092,10.0991,-37.9192,11.7683,0.012000
0.8054,-0.2803,0.5660,6.5015,-33.2698,9.4665,0.012000
0.8085,-0.2941,0.5098,3.1707,-34.7637,9.0473,0.012000
0.8108,-0.3051,0.4916,-0.2820,-43.7424,10.2820,0.012000
0.7757,-0.2856,0.5974,-7.4466,-60.0229,14.7637,0.012000
0.7755,-0.2668,0.6299,-7.8049,-55.5564,17.0351,0.012000
0.8095,-0.2604,0.6127,-5.7165,-44.9390,16.3338,0.012000
0.8496,-0.2756,0.6034,-2.3857,-33.4375,12.7668,0.012000
0.8741,-0.3051,0.4939,1.9207,-13.8948,1.4101,0.012000
0.8685,-0.3386,0.4204,0.3963,-17.0960,-0.9375,0.012000
0.8411,-0.3391,0.4393,-3.9939,-29.2378,1.0976,0.012000
0.8083,-0.3029,0.4940,-9.7485,-39.6037,5.8841,0.012000
0.8168,-0.2797,0.5239,-12.2637,-43.3613,9.6189,0.012000
0.8635,-0.2837,0.5245,-6.4482,-33.4756,7.6448,0.012000
0.8654,-0.2885,0.4955,-2.6448,-25.4878,3.7576,0.012000
0.8624,-0.2923,0.4886,-0.5259,-17.1723,-0.1220,0.012000
0.8579,-0.3051,0.4554,-0.2210,-8.9558,-3.3460,0.012000
0.8259,-0.3381,0.3922,-1.9741,-7.3933,-4.0777,0.012000
0.8080,-0.3000,0.4567,-7.5000,-19.0625,4.7637,0.012000
0.8303,-0.2968,0.4755,-9.9085,-19.6113,8.1860,0.012000
0.8497,-0.2888,0.4968,-9.8247,-15.4116,8.3155,0.012000
0.8477,-0.2822,0.5104,-7.7591,-6.4405,5.5259,0.012000
0.8458,-0.2932,0.4852,-5.0305,2.9954,1.8598,0.012000
0.8474,-0.3245,0.4421,-1.7454,8.4680,-0.9985,0.012000
0.8404,-0.3235,0.4576,-3.2851,8.1707,-0.5259,0.012000
0.8408,-0.3190,0.4712,-4.9466,8.8796,0.6555,0.012000
0.8506,-0.3163,0.4879,-5.4954,10.5412,1.0899,0.012000
0.8817,-0.3166,0.4897,-4.4893,11.0518,0.0229,0.012000
0.8660,-0.3228,0.5220,1.5473,11.3034,-4.2302,0.012000
0.8422,-0.3123,0.5333,4.5808,16.9665,-6.4863,0.012000
0.8441,-0.3126,0.5190,7.5381,24.7332,-8.1555,0.012000
0.8608,-0.3169,0.5060,10.2591,31.9665,-9.9543,0.012000
0.8741,-0.3205,0.4846,13.7119,43.4146,-16.2652,0.012000
0.8643,-0.3235,0.4551,13.0793,44.3140,-18.7576,0.012000
0.8495,-0.3271,0.4467,11.2119,39.7256,-18.9939,0.012000
0.8225,-0.3249,0.4581,8.6509,33.0869,-17.4314,0.012000
0.7954,-0.3094,0.4743,5.7546,27.8277,-14.7332,0.012000
0.7566,-0.2964,0.5024,2.2256,25.8460,-9.4665,0.012000
0.7561,-0.2747,0.5308,1.2195,30.9223,-7.3247,0.012000
0.7673,-0.2681,0.5336,0.8079,37.7820,-6.3796,0.012000
0.7906,-0.2836,0.5279,1.4253,42.2866,-6.1585,0.012000
0.8149,-0.2908,0.4959,2.4162,42.7134,-6.6387,0.012000
0.7679,-0.3149,0.4841,1.8598,26.8750,-4.0168,0.012000
0.7548,-0.2769,0.5160,3.6890,15.8232,0.6021,0.012000
0.7567,-0.2731,0.5680,-0.3125,12.0655,2.9802,0.012000
0.7850,-0.2720,0.5698,-3.3232,12.1494,4.0854,0.012000
0.8083,-0.2776,0.5665,-3.1631,10.1753,4.1845,0.012000
0.7938,-0.2795,0.5981,0.1143,11.0213,0.9451,0.012000
0.7843,-0.2682,0.6213,1.6159,15.9223,-1.0595,0.012000
0.7837,-0.2595,0.6463,4.8933,23.8262,-3.5899,0.012000
0.7944,-0.2658,0.6307,9.4741,33.7576,-7.2790,0.012000
0.8042,-0.2741,0.6141,13.3994,41.0823,-10.1905,0.012000
0.8033,-0.2790,0.6031,15.9832,48.8872,-14.2759,0.012000
0.7877,-0.2828,0.5886,15.8308,50.1982,-15.3201,0.012000
0.7700,-0.2881,0.5867,16.4329,50.3659,-15.9985,0.012000
0.7561,-0.2734,0.6094,16.9893,52.1341,-15.8689,0.012000
0.7546,-0.2548,0.6683,16.7683,56.2652,-15.5107,0.012000
0.7516,-0.2438,0.6727,18.7348,67.2027,-15.9223,0.012000
0.7511,-0.2434,0.6698,21.1128,73.2622,-16.7302,0.012000
0.7509,-0.2500,0.6624,24.0473,79.5351,-18.1174,0.012000
0.7548,-0.2544,0.6389,25.6479,84.0091,-20.2210,0.012000
0.7231,-0.2539,0.6394,23.3613,76.2424,-21.4177,0.012000
0.6903,-0.2499,0.6459,20.6936,68.2774,-20.6860,0.012000
0.6581,-0.2444,0.6773,18.3613,61.8674,-18.3918,0.012000
0.6288,-0.2497,0.6792,16.8445,63.6585,-16.7149,0.012000
0.6920,-0.2070,0.7464,13.3689,62.6829,-13.4680,0.012000
0.6879,-0.1915,0.7733,13.5290,60.5335,-12.0122,0.012000
0.6927,-0.1815,0.7565,17.8277,60.1372,-15.4726,0.012000
0.6641,-0.1899,0.7300,20.2744,58.1250,-17.3628,0.012000
0.6195,-0.1907,0.6921,20.9756,56.6387,-16.8064,0.012000
0.6106,-0.2059,0.6827,18.5213,54.5884,-14.3902,0.012000
0.5980,-0.1988,0.7006,9.8399,44.9009,-7.6524,0.012000
0.5858,-0.1865,0.7330,7.2180,40.9070,-5.3963,0.012000
0.5547,-0.1705,0.7654,5.8384,41.2805,-3.2622,0.012000
0.5322,-0.1630,0.7935,5.1220,46.1357,-1.0442,0.012000
0.5289,-0.1588,0.8190,4.4436,53.4832,1.5015,0.012000
0.5588,-0.1771,0.7992,6.2348,65.5183,4.3826,0.012000
0.5656,-0.1909,0.7767,9.1311,66.3034,3.6890,0.012000
0.5501,-0.1939,0.7653,10.9375,64.8628,2.5762,0.012000
0.5278,-0.1883,0.7602,9.9466,61.6540,2.3018,0.012000
0.4693,-0.1689,0.7914,7.7439,58.7043,3.8643,0.012000
0.4491,-0.1619,0.8063,3.8415,64.8323,9.3445,0.012000
0.4501,-0.1664,0.8149,3.0869,72.7973,11.8598,0.012000
0.4619,-0.1643,0.8265,2.7134,80.4954,13.2774,0.012000
0.4853,-0.1520,0.8502,3.2088,84.7027,13.5061,0.012000
0.5269,-0.1537,0.8491,8.1631,75.2896,10.0686,0.012000
0.5056,-0.1543,0.8517,12.1265,66.5015,8.5899,0.012000
0.4584,-0.1562,0.8616,15.1143,62.6677,6.7149,0.012000
0.4358,-0.1531,0.8817,15.7622,64.6951,5.2668,0.012000
0.4448,-0.1544,0.8946,15.0610,70.3582,3.9177,0.012000
0.4543,-0.1575,0.9005,12.5838,78.7424,1.1509,0.012000
0.4146,-0.1571,0.8988,13.4223,79.6418,-1.2195,0.012000
0.3832,-0.1590,0.8983,14.5198,79.9771,-2.8582,0.012000
0.3506,-0.1541,0.9138,15.4726,82.0579,-3.9558,0.012000
0.3134,-0.1646,0.9415,15.8384,86.7454,-3.9101,0.012000
0.3367,-0.1586,0.9556,15.7470,95.2287,-0.1296,0.012000
0.3381,-0.1635,0.9707,16.1814,94.4055,0.7241,0.012000
0.3104,-0.1569,0.9671,16.4024,93.4146,0.3430,0.012000
0.2626,-0.1552,0.9542,16.5168,93.7119,-1.1662,0.012000
0.2264,-0.1493,0.9557,16.6006,94.4588,-0.8384,0.012000
0.2373,-0.1477,0.9791,16.1890,93.4832,2.4162,0.012000
0.2305,-0.1463,0.9737,15.4726,92.0046,1.8902,0.012000
0.2170,-0.1531,0.9776,15.2210,88.1707,1.7835,0.012000
0.1837,-0.1526,0.9807,15.8384,84.4741,2.4695,0.012000
0.1824,-0.1332,0.9999,17.4009,81.5854,2.9802,0.012000
0.1932,-0.1235,1.0040,20.2287,72.2027,2.2637,0.012000
0.1779,-0.1141,1.0080,20.8841,63.9710,0.3811,0.012000
0.1461,-0.1032,1.0149,22.5534,57.0046,-1.8369,0.012000
0.0970,-0.1053,1.0143,23.6357,54.1159,-3.8186,0.012000
0.0336,-0.0848,1.0249,23.7195,56.9588,-0.6784,0.012000
0.0629,-0.0703,1.0118,25.2058,55.7698,1.3796,0.012000
0.0869,-0.0497,0.9822,28.6052,48.8110,1.8140,0.012000
0.0744,-0.0502,0.9720,31.8521,39.6494,0.3735,0.012000
0.0497,-0.0490,0.9577,30.8308,32.8887,-1.2729,0.012000
-0.0148,-0.0801,0.9935,26.2729,26.7378,-1.3567,0.012000
-0.0242,-0.0121,1.0055,23.5976,24.9162,0.4345,0.012000
-0.0118,-0.0120,1.0160,21.4024,18.1174,0.9375,0.012000
-0.0264,-0.0062,1.0068,19.2302,11.0518,1.5549,0.012000
-0.0510,0.0035,1.0060,18.1631,8.1326,2.2942,0.012000
-0.0712,0.0128,1.0419,17.2637,17.3323,4.4665,0.012000
-0.0746,0.0075,1.0344,17.1570,22.8735,5.7088,0.012000
-0.0458,0.0124,1.0170,18.5823,23.6433,8.2165,0.012000
0.0073,0.0157,1.0081,19.3216,19.9162,9.4055,0.012000
0.0170,0.0166,0.9805,17.8963,15.5183,8.3765,0.012000
-0.0272,0.0345,0.9624,9.9848,21.2348,7.2866,0.012000
-0.0151,0.0100,0.9570,6.5015,27.0808,6.3415,0.012000
0.0231,-0.0181,0.9621,2.6524,23.2698,5.8003,0.012000
0.0806,-0.0402,0.9757,0.4421,13.6052,6.6692,0.012000
0.0634,-0.0342,1.0261,-1.0061,1.4329,6.2500,0.012000
0.0347,-0.0280,1.0545,-2.6982,-13.5899,2.4085,0.012000
0.0229,-0.0266,1.0819,-1.7302,-14.4436,0.0000,0.012000
0.0648,-0.0566,1.0781,-0.6250,-11.8902,-3.9482,0.012000
0.1117,-0.0754,1.1023,1.6768,-8.8643,-4.3369,0.012000
0.0622,-0.0406,1.1154,3.5595,-5.3049,-6.7302,0.012000
0.0250,-0.0533,1.0956,2.3095,-0.3811,-9.5274,0.012000
-0.0034,-0.0676,1.0258,1.9665,5.3354,-9.8171,0.012000
0.0059,-0.0800,0.9307,5.0000,5.0152,-6.6768,0.012000
0.0546,-0.0884,0.9106,13.2698,-2.6982,-2.5686,0.012000
-0.0130,-0.0242,0.9540,24.4131,-17.1113,0.9680,0.012000
-0.0190,-0.0071,0.9709,20.6555,-14.9009,-1.2424,0.012000
0.0065,-0.0144,0.9590,14.5655,-8.2622,-5.2820,0.012000
0.0169,-0.0166,0.9879,7.6677,-2.2256,-7.0579,0.012000
0.0007,-0.0001,1.0230,2.8430,3.7729,-7.5076,0.012000
-0.0169,0.0222,1.0401,-1.7530,12.6143,-7.2942,0.012000
-0.0016,-0.0003,1.0129,-2.2485,17.3399,-7.7973,0.012000
0.0149,-0.0173,0.9949,-1.9055,19.3598,-9.2073,0.012000
0.0207,-0.0164,0.9882,-1.0137,17.0808,-10.9909,0.012000
0.0209,-0.0187,0.9764,-0.5412,11.4405,-11.9131,0.012000
0.0037,-0.0055,1.0342,1.1890,-3.4070,-8.9253,0.012000
-0.0069,-0.0016,1.0567,2.2485,-6.5930,-6.9055,0.012000
0.0156,0.0074,1.0663,2.0655,-9.5503,-5.3430,0.012000
0.0258,-0.0077,1.0549,-0.1220,-7.3552,-4.6570,0.012000
0.0033,-0.0227,1.0439,-2.8125,-2.9802,-5.3354,0.012000
0.0195,-0.0081,1.0077,-5.0534,1.4405,-4.1997,0.012000
0.0463,-0.0383,0.9736,-3.8034,-2.1570,-0.8003,0.012000
0.0623,-0.0406,0.9663,-1.4939,-7.7820,0.5793,0.012000
0.0600,-0.0289,0.9788,0.4726,-13.6890,2.2713,0.012000
0.0385,-0.0321,0.9996,0.6631,-22.3476,7.2180,0.012000
0.0322,-0.0301,1.0067,-0.0762,-21.5701,7.2104,0.012000
0.0256,-0.0181,0.9940,-1.1280,-16.4024,5.9680,0.012000
-0.0021,-0.0153,0.9839,-1.6006,-13.2241,6.3567,0.012000
0.0029,0.0064,0.9910,1.7454,-16.6311,14.1082,0.012000
0.0494,-0.0786,0.9571,11.5701,-18.3308,22.7591,0.012000
0.0040,-0.0428,0.9535,12.0046,-15.0381,20.5945,0.012000
-0.0001,-0.0273,0.9482,9.2607,-9.7485,14.6799,0.012000
0.0377,-0.0352,0.9387,4.9162,-5.1982,8.8262,0.012000
0.0539,-0.0330,0.9397,1.3186,-2.3933,5.2744,0.012000
0.0574,-0.0270,0.9484,-0.5564,-0.6402,1.0595,0.012000
0.0710,-0.0292,0.9778,1.3643,-2.1341,-0.0686,0.012000
0.0595,-0.0168,1.0163,3.9939,-3.6585,0.0838,0.012000
0.0574,0.0311,1.1138,10.0152,-17.0884,6.6311,0.012000
0.0687,0.1061,1.3123,15.1220,-20.9756,12.6220,0.012000
0.0980,-0.0045,0.9440,2.3399,7.6524,4.2226,0.012000
0.0699,-0.0053,1.0023,1.0823,2.0122,1.9970,0.012000
0.0549,-0.0004,1.0151,3.5747,-0.0838,1.1280,0.012000
0.0651,-0.0037,0.9988,3.2774,-0.1677,1.9741,0.012000
0.0686,-0.0051,0.9880,6.0671,-0.4802,2.3704,0.012000
0.0685,0.0047,0.9883,6.2271,1.4253,2.4085,0.012000
0.0704,0.0057,0.9933,4.5960,3.2851,1.6921,0.012000
0.0669,0.0070,0.9965,2.0274,5.6402,1.2500,0.012000
0.0753,0.0154,0.9849,-0.4192,8.9939,2.1037,0.012000
0.0748,0.0355,1.0573,-2.6982,15.8460,6.5854,0.012000
0.0278,-0.0141,1.0016,-31.4329,7.3780,16.5701,0.012000
0.0232,-0.0660,1.0050,-23.3232,-0.0534,16.1052,0.012000
0.0391,-0.0360,0.9863,-14.8095,-4.0473,16.4405,0.012000
0.0392,-0.0171,0.9460,-19.2149,-6.1890,18.2088,0.012000
0.0490,-0.0275,0.9435,-18.1174,-12.1570,15.6707,0.012000
0.0142,-0.0821,0.8286,-21.9055,-19.9848,17.8430,0.012000
0.0021,-0.0937,0.8553,-13.1021,-30.5716,22.8125,0.012000
0.0702,0.0177,1.0554,2.7973,-1.2119,24.2607,0.012000
0.0828,-0.0288,0.9977,-0.0076,2.9040,25.8765,0.012000
0.0757,-0.0183,0.9916,1.0823,-0.1067,28.7576,0.012000
0.0608,-0.0345,1.0023,0.6326,0.1905,26.1814,0.012000
0.0605,-0.0324,0.9970,0.4345,0.1296,25.0915,0.012000
0.0582,-0.0373,1.0020,0.9451,0.0610,25.9985,0.012000
0.0385,-0.0554,0.9956,1.0747,0.0534,27.5305,0.012000
0.0779,-0.0151,0.9974,1.4253,-0.1372,36.0976,0.012000
0.0683,-0.0011,1.0026,2.2866,-0.4040,45.1829,0.012000
0.0582,0.0043,0.9972,3.4604,-0.5107,55.1524,0.012000
0.0480,0.0078,0.9989,3.4985,-0.6021,59.1463,0.012000
-0.0034,-0.0257,0.9987,-2.8963,-0.7851,46.4939,0.012000
-0.0483,-0.0624,1.0011,-0.2896,0.5030,-5.1143,0.012000
-0.0118,-0.0385,1.0033,-0.7546,0.8308,-15.5869,0.012000
0.0377,-0.0078,1.0057,0.3277,1.2652,-15.4497,0.012000
0.0676,0.0096,0.9968,1.0137,1.3872,-11.6921,0.012000
0.1263,-0.0182,1.0008,0.3277,1.0366,-6.0823,0.012000
0.1229,-0.0219,0.9984,0.6479,0.2439,18.5595,0.012000
0.1267,-0.0412,0.9982,-1.1814,0.0229,28.9177,0.012000
0.1234,-0.0464,0.9984,1.1128,-0.0686,36.5473,0.012000
0.1166,-0.0460,0.9982,1.3567,-0.2896,41.9970,0.012000
0.1161,-0.0378,0.9993,1.4787,-0.2668,44.2149,0.012000
0.1142,-0.0356,0.9980,1.2500,-0.2668,41.5244,0.012000
0.1050,-0.0301,0.9995,1.1966,-0.1448,36.8293,0.012000
0.0945,-0.0228,0.9990,1.1052,-0.0915,31.4939,0.012000
0.0743,-0.0339,0.9970,0.9680,-0.0305,26.0899,0.012000
0.0662,-0.0399,1.0007,0.7851,0.3277,14.4817,0.012000
0.0660,-0.0428,0.9988,0.4421,0.3354,7.4848,0.012000
0.0662,-0.0396,1.0001,0.2896,0.4497,1.3491,0.012000
0.0672,-0.0320,0.9982,0.3811,0.5259,-1.1128,0.012000
0.0675,-0.0314,0.9995,0.3659,0.6021,-0.5793,0.012000
0.0670,-0.0313,1.0037,0.3049,0.5716,-0.6326,0.012000
0.0666,-0.0332,0.9980,0.0762,0.5640,-0.5716,0.012000
0.0657,-0.0350,1.0001,0.2134,0.5793,-0.5793,0.012000
0.0644,-0.0345,0.9974,0.3354,0.4573,-0.5793,0.012000
0.0684,-0.0339,0.9991,0.2058,0.4802,-0.4954,0.012000
0.0653,-0.0333,0.9978,0.3582,0.5488,-0.4878,0.012000
0.0658,-0.0336,0.9976,0.0610,0.5259,-0.5183,0.012000
0.0657,-0.0334,1.0010,0.1296,0.5564,-0.5412,0.012000
0.0654,-0.0317,1.0012,0.4421,0.5107,-0.5107,0.012000
0.0698,-0.0325,1.0007,0.2973,0.4573,-0.5030,0.012000
0.0685,-0.0314,1.0007,0.2591,0.5564,-0.5716,0.012000
0.0689,-0.0328,1.0005,0.1601,0.4802,-0.5564,0.012000
0.0674,-0.0336,0.9995,0.1829,0.5259,-0.5716,0.012000
0.0661,-0.0361,1.0004,0.3277,0.5716,-0.4878,0.012000
0.0661,-0.0338,0.9999,0.2287,0.6098,-0.4649,0.012000
0.0681,-0.0319,1.0001,0.2210,0.5335,-0.5183,0.012000
0.0699,-0.0308,1.0024,0.2363,0.5412,-0.4878,0.012000
0.0668,-0.0322,1.0002,0.3049,0.5412,-0.5412,0.012000
0.0663,-0.0326,0.9990,0.2744,0.5412,-0.5488,0.012000
0.0646,-0.0356,0.9990,0.1524,0.5488,-0.5869,0.012000
0.0670,-0.0342,0.9990,0.2668,0.5335,-0.6021,0.012000
0.0676,-0.0347,1.0005,0.3201,0.5259,-0.5640,0.012000
0.0679,-0.0340,1.0002,0.2210,0.5259,-0.6098,0.012000
0.0658,-0.0343,0.9987,0.1677,0.4954,-0.4726,0.012000
0.0695,-0.0332,1.0010,0.3659,0.5335,-0.6021,0.012000
0.0673,-0.0312,1.0002,0.3354,0.6174,-0.5335,0.012000
0.0621,-0.0319,1.0016,0.3049,0.6021,-0.5488,0.012000
0.0643,-0.0325,0.9963,0.2210,0.4268,-0.5793,0.012000
0.0687,-0.0333,1.0049,0.2591,0.3963,-0.5640,0.012000
0.0662,-0.0372,0.9985,0.1296,0.6707,-0.5716,0.012000
0.0647,-0.0349,0.9935,0.3430,0.6098,-0.4802,0.012000
0.0656,-0.0350,1.0013,0.2287,0.5107,-0.5640,0.012000
0.0662,-0.0308,0.9975,0.3582,0.4573,-0.6098,0.012000
0.0681,-0.0305,1.0021,0.3354,0.4802,-0.6098,0.012000
0.0660,-0.0311,0.9967,-0.0152,0.4268,-0.5488,0.012000
0.0667,-0.0333,1.0081,0.2820,0.5259,-0.6402,0.012000
0.0674,-0.0303,0.9966,0.4040,0.5869,-0.5716,0.012000
0.0670,-0.0364,1.0035,0.0762,0.5564,-0.5716,0.012000
0.0673,-0.0349,1.0009,0.1143,0.5259,-0.3963,0.012000
0.0683,-0.0353,0.9990,0.2591,0.6555,-0.5412,0.012000
0.0688,-0.0364,1.0009,0.3049,0.6021,-0.5259,0.012000
0.0710,-0.0361,0.9994,0.3277,0.5259,-0.5716,0.012000
0.0698,-0.0350,0.9985,0.2744,0.5716,-0.5030,0.012000
0.0643,-0.0321,0.9990,0.2287,0.6784,-0.5412,0.012000
0.0629,-0.0329,0.9988,0.2515,0.5793,-0.5564,0.012000
0.0632,-0.0331,1.0012,0.3659,0.5030,-0.4802,0.012000
0.0686,-0.0321,1.0005,0.3201,0.6021,-0.5259,0.012000
0.0692,-0.0345,0.9976,0.1601,0.6631,-0.5640,0.012000
0.0668,-0.0350,0.9989,0.2668,0.5412,-0.4954,0.012000
0.0674,-0.0364,1.0010,0.3430,0.5030,-0.5259,0.012000
0.0677,-0.0349,0.9978,0.3811,0.5335,-0.5412,0.012000
0.0686,-0.0334,0.9999,0.4421,0.5716,-0.5107,0.012000
0.0687,-0.0300,1.0020,0.3354,0.4802,-0.5107,0.012000
0.0682,-0.0320,0.9984,0.2439,0.5793,-0.5107,0.012000
0.0672,-0.0327,1.0019,0.1905,0.5716,-0.5564,0.012000
0.0675,-0.0337,0.9993,0.1143,0.5869,-0.4802,0.012000
0.0669,-0.0337,0.9986,0.2058,0.5793,-0.4649,0.012000
0.0660,-0.0343,1.0013,0.2591,0.5716,-0.4802,0.012000
0.0687,-0.0324,0.9987,0.1753,0.5030,-0.5183,0.012000
0.0677,-0.0354,0.9967,0.1601,0.5793,-0.5412,0.012000
0.0647,-0.0355,0.9995,0.2744,0.5640,-0.4954,0.012000
0.0619,-0.0341,0.9982,0.2973,0.5564,-0.5183,0.012000
0.0693,-0.0293,1.0023,0.4726,0.5793,-0.5412,0.012000
0.0703,-0.0319,0.9997,0.2744,0.5183,-0.5793,0.012000
0.0680,-0.0328,1.0005,0.4878,0.5335,-0.5412,0.012000
0.0646,-0.0306,0.9950,0.3659,0.6479,-0.5412,0.012000
0.0670,-0.0350,1.0027,-0.0610,0.5107,-0.5412,0.012000
0.0688,-0.0341,1.0013,0.0076,0.4649,-0.4878,0.012000
0.0676,-0.0382,0.9988,0.1143,0.4878,-0.4040,0.012000
0.0677,-0.0363,0.9991,0.5412,0.6021,-0.4116,0.012000
0.0663,-0.0342,1.0001,0.4268,0.5564,-0.4421,0.012000
0.0683,-0.0327,0.9993,0.3125,0.5640,-0.5869,0.012000
0.0673,-0.0308,1.0025,0.6021,0.5716,-0.4421,0.012000
0.0662,-0.0334,1.0005,0.5412,0.5412,-0.3963,0.012000
0.0654,-0.0334,1.0010,0.4878,0.5183,-0.3887,0.012000
0.0653,-0.0317,0.9986,0.5716,0.5716,-0.3811,0.012000
0.0670,-0.0317,0.9973,0.4878,0.5564,-0.1524,0.012000
0.0689,-0.0297,0.9993,0.4421,0.4802,3.3232,0.012000
0.0669,-0.0327,0.9979,0.5945,0.4649,6.7226,0.012000
0.0680,-0.0349,1.0009,0.4878,0.3506,8.4680,0.012000
0.0678,-0.0324,1.0002,0.4726,0.2439,8.7348,0.012000
0.0703,-0.0306,0.9990,0.3582,0.2896,8.5899,0.012000
0.0667,-0.0350,1.0000,0.3659,0.4345,5.5107,0.012000
0.0647,-0.0331,0.9999,0.2896,0.4573,3.8643,0.012000
0.0649,-0.0376,0.9989,0.0991,0.4573,2.1875,0.012000
0.0663,-0.0352,0.9975,0.1905,0.4649,0.2287,0.012000
0.0684,-0.0370,1.0028,0.2363,0.5030,-0.6784,0.012000
0.0687,-0.0358,0.9979,0.3125,0.6402,-0.5030,0.012000
0.0662,-0.0317,0.9979,0.2515,0.5640,-0.6250,0.012000
0.0679,-0.0350,1.0016,0.0076,0.5107,-0.5564,0.012000
0.0703,-0.0350,0.9989,0.2363,0.5107,-0.5335,0.012000
0.0644,-0.0326,0.9989,0.2591,0.4878,-0.4726,0.012000
0.0644,-0.0320,0.9998,0.2973,0.6021,-0.5183,0.012000
0.0646,-0.0325,1.0006,0.3659,0.5793,-0.5412,0.012000
0.0677,-0.0309,0.9989,0.2439,0.5869,-0.5335,0.012000
0.0694,-0.0331,0.9977,0.1601,0.5335,-0.5869,0.012000
0.1012,-0.0241,1.0032,0.0152,0.5335,-0.7546,0.012000
0.1658,-0.0082,0.9956,0.3735,0.9680,-2.2180,0.012000
0.1420,-0.0117,0.9949,-0.2744,1.0747,1.3415,0.012000
0.1346,-0.0017,1.0033,-0.3049,1.0213,8.9101,0.012000
0.1390,-0.0066,0.9989,0.0915,1.3415,13.3308,0.012000
0.1110,-0.0251,0.9995,-0.2591,1.1814,17.9649,0.012000
0.0898,-0.0253,1.0002,0.1982,0.9909,18.7652,0.012000
0.0728,-0.0182,1.0018,0.3963,0.8994,18.0412,0.012000
0.0490,-0.0225,0.9995,0.3125,0.9223,14.9390,0.012000
0.0200,-0.0468,1.0007,0.0991,0.7470,12.0960,0.012000
-0.0023,-0.0537,0.9986,0.3506,0.8918,8.6662,0.012000
-0.0128,-0.0586,0.9990,0.1067,0.7470,7.1646,0.012000
-0.0217,-0.0666,0.9985,0.0457,0.7012,6.4710,0.012000
-0.0251,-0.0950,0.9971,-0.2973,0.7317,6.2957,0.012000
0.0674,-0.0325,0.9936,0.3963,0.1982,5.9832,0.012000
0.0690,-0.0367,0.9971,-0.1753,0.4726,-0.0229,0.012000
0.0687,-0.0399,1.0024,0.2058,0.5412,-0.5107,0.012000
0.0667,-0.0341,0.9996,0.8079,0.6555,-0.5640,0.012000
0.0643,-0.0364,0.9983,0.4726,0.5183,-0.5107,0.012000
0.0642,-0.0365,1.0002,0.0534,0.5564,-0.5183,0.012000
0.0692,-0.0350,1.0004,0.2973,0.5869,-0.4726,0.012000
0.0691,-0.0367,0.9998,0.1905,0.5030,-0.6250,0.012000
0.0668,-0.0372,1.0017,0.0305,0.5335,-0.5716,0.012000
0.0655,-0.0380,0.9987,0.1524,0.5640,-0.5564,0.012000
0.0653,-0.0359,1.0003,0.1753,0.5564,-0.5259,0.012000
0.0671,-0.0357,1.0001,0.2973,0.6021,-0.5640,0.012000
0.0672,-0.0346,1.0016,0.2363,0.5564,-0.6021,0.012000
0.0670,-0.0360,0.9989,0.1753,0.5183,-0.5564,0.012000
0.0661,-0.0347,0.9975,0.2668,0.6326,-0.4878,0.012000
0.0643,-0.0375,0.9989,0.2058,0.5793,-0.6174,0.012000
0.0648,-0.0369,0.9982,0.1677,0.5869,-0.5412,0.012000
0.0644,-0.0357,0.9978,0.1448,0.5640,-0.5107,0.012000
0.0653,-0.0366,1.0008,0.1982,0.5793,-0.5183,0.012000
0.0650,-0.0396,0.9999,0.1677,0.5945,-0.5488,0.012000
0.0662,-0.0363,0.9987,0.2668,0.6021,-0.4954,0.012000
0.0663,-0.0367,0.9977,0.2820,0.6250,-0.5640,0.012000
0.0648,-0.0363,1.0001,0.3125,0.5869,-0.4802,0.012000
0.0652,-0.0358,0.9998,0.2515,0.6021,-0.4802,0.012000
0.0678,-0.0360,1.0000,0.3811,0.5335,-0.6098,0.012000
0.0677,-0.0373,1.0015,0.3049,0.5945,-0.5945,0.012000
0.0652,-0.0375,0.9993,0.3125,0.5335,-0.5488,0.012000
0.0653,-0.0371,0.9993,0.3201,0.5640,-0.5640,0.012000
0.0634,-0.0363,0.9991,0.3811,0.5945,-0.5945,0.012000
0.0647,-0.0360,0.9992,0.2439,0.5640,-0.5107,0.012000
0.0674,-0.0349,1.0012,0.1829,0.5640,-0.5335,0.012000
0.0660,-0.0333,1.0009,0.2134,0.5640,-0.5793,0.012000
0.0663,-0.0361,0.9985,0.2210,0.5945,-0.5716,0.012000
0.0646,-0.0380,1.0004,0.2896,0.5412,-0.5793,0.012000
0.0655,-0.0370,0.9986,0.3125,0.5488,-0.5183,0.012000
0.0652,-0.0355,0.9983,0.2439,0.5716,-0.5640,0.012000
0.0662,-0.0353,0.9999,0.1982,0.5183,-0.5869,0.012000
0.0667,-0.0352,1.0007,0.2896,0.5564,-0.6021,0.012000
0.0646,-0.0364,0.9969,0.3049,0.5335,-0.5640,0.012000
0.0676,-0.0360,1.0009,0.3430,0.5107,-0.4954,0.012000
0.0626,-0.0370,0.9992,0.2287,0.5869,-0.4878,0.012000
0.0639,-0.0353,0.9987,0.2058,0.6326,-0.5869,0.012000
0.0645,-0.0357,0.9983,0.3125,0.4573,-0.6250,0.012000
0.0662,-0.0385,1.0000,0.3201,0.5183,-0.5488,0.012000
0.0676,-0.0374,1.0011,0.2668,0.5488,-0.5564,0.012000
0.0661,-0.0372,1.0006,0.3354,0.5564,-0.4802,0.012000
0.0667,-0.0381,0.9989,0.3049,0.5335,-0.4802,0.012000
0.0642,-0.0361,1.0012,0.4268,0.5716,-0.4802,0.012000
0.0650,-0.0343,1.0017,0.3049,0.5640,-0.5488,0.012000
0.0645,-0.0351,1.0002,0.3049,0.5259,-0.5564,0.012000
0.0643,-0.0366,0.9996,0.2744,0.5640,-0.5869,0.012000
0.0647,-0.0375,0.9985,0.2973,0.5945,-0.5716,0.012000
0.0663,-0.0380,1.0017,0.2363,0.5107,-0.5716,0.012000
0.0655,-0.0374,0.9987,0.3049,0.6021,-0.5412,0.012000
0.0649,-0.0367,1.0017,0.2591,0.5716,-0.5869,0.012000
0.0647,-0.0362,1.0001,0.1753,0.5869,-0.5488,0.012000
0.0662,-0.0382,0.9998,0.2591,0.6021,-0.5640,0.012000
0.0648,-0.0375,1.0009,0.2820,0.5716,-0.5869,0.012000
0.0648,-0.0384,0.9979,0.2439,0.5259,-0.5335,0.012000
0.0627,-0.0378,0.9985,0.3735,0.5945,-0.5869,0.012000
0.0640,-0.0368,1.0009,0.2058,0.5716,-0.5793,0.012000
0.0653,-0.0355,0.9994,0.2515,0.6021,-0.5945,0.012000
0.0671,-0.0365,0.9988,0.3659,0.5716,-0.5869,0.012000
0.0651,-0.0364,0.9993,0.2363,0.5869,-0.5716,0.012000
0.0645,-0.0368,1.0007,0.3125,0.6250,-0.5945,0.012000
0.0661,-0.0360,0.9998,0.3430,0.5412,-0.5640,0.012000
0.0677,-0.0357,0.9976,0.3506,0.6555,-0.5107,0.012000
0.0632,-0.0370,0.9983,0.2820,0.6174,-0.5259,0.012000
0.0649,-0.0392,1.0020,0.1524,0.5564,-0.5640,0.012000
0.0683,-0.0371,1.0018,0.3125,0.6021,-0.5183,0.012000
0.0673,-0.0362,1.0012,0.4726,0.5716,-0.5335,0.012000
0.0659,-0.0352,1.0018,0.3201,0.5412,-0.5412,0.012000
0.0665,-0.0372,1.0013,0.3735,0.5030,-0.5107,0.012000
0.0639,-0.0360,1.0000,0.2744,0.6707,-0.5183,0.012000
0.0652,-0.0366,1.0007,0.3735,0.5488,-0.4954,0.012000
0.0664,-0.0376,0.9977,0.2973,0.5335,-0.4878,0.012000
0.0671,-0.0364,1.0009,0.2210,0.6326,-0.4878,0.012000
0.0649,-0.0358,0.9971,0.3277,0.5716,-0.5259,0.012000
0.0638,-0.0382,1.0010,0.3277,0.5488,-0.5640,0.012000
0.0631,-0.0273,0.9910,0.2591,0.4802,-0.5945,0.012000
0.0666,-0.0466,1.0108,-1.1357,0.2287,-0.4649,0.012000
0.0683,-0.0456,1.0063,0.4802,0.5640,-0.5793,0.012000
0.0660,-0.0441,1.0046,-0.4345,0.5945,-0.4345,0.012000
0.0651,-0.0374,0.9958,0.7012,0.6021,-0.5564,0.012000
0.0634,-0.0353,0.9996,0.4802,0.5259,-0.5259,0.012000
0.0665,-0.0408,1.0036,0.2515,0.5335,-0.5793,0.012000
0.0664,-0.0338,0.9967,0.7241,0.5564,-0.5793,0.012000
0.0630,-0.0383,0.9998,0.4345,0.5793,-0.5107,0.012000
0.0634,-0.0366,0.9991,0.3887,0.5640,-0.5716,0.012000
0.0652,-0.0372,1.0022,0.3811,0.4954,-0.5793,0.012000
0.0663,-0.0342,0.9986,0.3430,0.5716,-0.5869,0.012000
0.0669,-0.0356,0.9993,0.1524,0.5335,-0.5869,0.012000
0.0662,-0.0377,1.0011,0.2896,0.5945,-0.5793,0.012000
0.0428,-0.0362,1.0033,0.3582,0.6098,1.1585,0.012000
0.0742,-0.0367,0.9967,0.6631,0.3659,5.6860,0.012000
0.0666,-0.0415,1.0048,0.4421,0.3659,5.3659,0.012000
0.0644,-0.0432,0.9937,0.2896,0.4192,6.7683,0.012000
0.0656,-0.0361,0.9988,0.8384,0.3735,8.9253,0.012000
0.0620,-0.0441,0.9973,0.8079,0.2591,8.2317,0.012000
