ax,ay,az,gx,gy,gz,dt
0.0679,0.0029,0.9995,-0.2515,-0.7851,0.3887,0.000012
0.0778,0.0247,1.0056,-0.4116,-0.8232,0.2134,0.012762
0.0657,0.0002,1.0002,0.1296,-0.0610,-0.4649,0.011981
0.0653,0.0009,1.0001,-0.0610,-0.1829,-0.3125,0.012000
0.0753,0.0081,1.0010,0.0000,-0.1220,-0.4192,0.012000
0.0686,0.0045,1.0007,0.3735,0.2973,-0.5183,0.012000
0.0708,0.0057,1.0010,0.2363,0.4497,-0.5869,0.012000
0.0677,0.0073,1.0007,0.3506,0.7622,-0.5945,0.012000
0.0665,0.0064,1.0001,0.3506,0.8003,-0.5945,0.012000
0.0703,0.0069,0.9987,0.3659,0.6707,-0.6402,0.012000
0.0681,0.0073,0.9996,0.3430,0.5945,-0.6479,0.012000
0.0697,0.0043,0.9988,0.2287,0.5183,-0.5412,0.012000
0.0677,0.0046,1.0012,0.1220,0.5107,-0.5030,0.012000
0.0702,0.0037,1.0008,0.2515,0.5335,-0.4954,0.012000
0.0695,0.0067,0.9985,0.2515,0.3506,-0.5488,0.012000
0.0685,0.0061,1.0013,0.1296,0.3659,-0.5564,0.012000
0.0692,0.0070,0.9989,0.1677,0.4192,-0.5259,0.012000
0.0690,0.0065,0.9988,0.3735,0.5107,-0.5564,0.012000
0.0691,0.0048,1.0000,0.1982,0.5945,-0.5793,0.012000
0.0696,0.0055,1.0015,0.1524,0.5640,-0.5716,0.012000
0.0715,0.0076,1.0010,0.1829,0.5412,-0.5488,0.012000
0.0710,0.0063,0.9990,0.2668,0.4345,-0.5640,0.012000
0.0690,0.0034,0.9988,0.3506,0.4878,-0.5107,0.012000
0.0698,0.0043,0.9982,0.2896,0.5412,-0.6098,0.012000
0.0692,0.0060,0.9999,0.1829,0.4726,-0.5793,0.012000
0.0699,0.0059,0.9990,0.1982,0.4421,-0.5335,0.012000
0.0681,0.0049,0.9986,0.2973,0.4573,-0.5640,0.012000
0.0701,0.0057,1.0013,0.1982,0.5793,-0.5793,0.012000
0.0696,0.0040,0.9981,0.2820,0.4192,-0.5564,0.012000
0.0714,0.0065,1.0001,0.1448,0.4726,-0.5488,0.012000
0.0696,0.0057,1.0007,0.2363,0.4573,-0.5640,0.012000
0.0686,0.0051,0.9995,0.1829,0.4345,-0.4726,0.012000
0.0690,0.0047,1.0007,0.1905,0.4116,-0.4802,0.012000
0.0717,0.0084,0.9996,0.0305,0.3125,-0.5183,0.012000
0.0677,0.0049,0.9965,0.2439,0.5793,-0.5564,0.012000
0.0674,0.0056,1.0012,0.3277,0.5640,-0.4878,0.012000
0.0717,0.0047,1.0001,0.2744,0.4726,-0.5716,0.012000
0.0723,0.0054,1.0005,0.2744,0.5183,-0.5335,0.012000
0.0689,0.0049,1.0020,0.2668,0.5793,-0.6250,0.012000
0.0706,0.0056,1.0021,0.3430,0.5183,-0.5716,0.012000
0.0710,0.0068,1.0004,0.3430,0.5793,-0.5488,0.012000
0.0684,0.0065,0.9999,0.2896,0.5259,-0.5640,0.012000
0.0687,0.0064,0.9996,0.1982,0.5259,-0.6402,0.012000
0.0715,0.0058,0.9984,0.2668,0.5183,-0.6098,0.012000
0.0672,0.0054,1.0017,0.2591,0.6250,-0.6402,0.012000
0.0701,0.0059,1.0003,0.3049,0.6936,-0.6860,0.012000
0.0690,0.0044,1.0007,0.2668,0.6860,-0.5259,0.012000
0.0692,0.0057,1.0009,0.1372,0.6784,-0.6021,0.012000
0.0693,0.0045,0.9990,0.1982,0.5412,-0.5793,0.012000
0.0701,0.0065,0.9970,0.2668,0.5335,-0.5869,0.012000
0.0715,0.0067,1.0015,0.2668,0.6174,-0.4878,0.012000
0.0677,0.0046,1.0020,0.3049,0.4954,-0.5793,0.012000
0.0699,0.0040,1.0010,0.2439,0.5107,-0.5945,0.012000
0.0709,0.0051,1.0014,0.1829,0.6098,-0.5716,0.012000
0.0708,0.0050,1.0013,0.2591,0.5412,-0.5945,0.012000
0.0710,0.0062,0.9998,0.2515,0.6250,-0.5564,0.012000
0.0700,0.0048,0.9998,0.1677,0.6326,-0.5183,0.012000
0.0685,0.0074,0.9987,0.3354,0.6174,-0.5640,0.012000
0.0706,0.0063,0.9996,0.3354,0.6174,-0.5640,0.012000
0.0696,0.0062,1.0006,0.3811,0.5640,-0.6098,0.012000
0.0711,0.0053,1.0009,0.2973,0.4802,-0.5335,0.012000
0.0704,0.0062,1.0001,0.1982,0.5335,-0.5564,0.012000
0.0721,0.0065,1.0015,0.3125,0.5412,-0.5640,0.012000
0.0709,0.0072,1.0008,0.3582,0.5412,-0.5488,0.012000
0.0677,0.0056,1.0006,0.4192,0.6784,-0.5259,0.012000
0.0663,0.0059,0.9981,0.2210,0.5716,-0.5793,0.012000
0.0710,0.0051,0.9991,0.1829,0.6021,-0.5488,0.012000
0.0728,0.0072,0.9981,0.3201,0.5869,-0.5793,0.012000
0.0737,0.0062,1.0010,0.3125,0.6250,-0.5412,0.012000
0.0701,0.0034,1.0007,0.1905,0.5945,-0.5335,0.012000
0.0679,0.0022,0.9999,0.1905,0.5793,-0.5793,0.012000
0.0686,0.0078,1.0026,0.3277,0.6631,-0.6098,0.012000
0.0701,0.0057,1.0013,0.2287,0.6479,-0.6326,0.012000
0.0706,0.0062,0.9990,0.1982,0.6174,-0.4954,0.012000
0.0695,0.0063,0.9998,0.2210,0.5716,-0.5412,0.012000
0.0699,0.0058,1.0015,0.3125,0.6021,-0.5259,0.012000
0.0708,0.0053,0.9998,0.3506,0.6707,-0.4954,0.012000
0.0699,0.0042,0.9983,0.2515,0.5869,-0.5030,0.012000
0.0689,0.0046,1.0003,0.1905,0.6707,-0.6098,0.012000
0.0670,0.0063,0.9990,0.2668,0.7470,-0.6021,0.012000
0.0679,0.0056,1.0014,0.3659,0.6174,-0.5488,0.012000
0.0706,0.0055,1.0016,0.1220,0.7622,-0.5488,0.012000
0.0685,0.0042,0.9973,0.1905,0.6936,-0.5259,0.012000
0.0676,0.0062,0.9993,0.1753,0.5869,-0.5107,0.012000
0.0709,0.0047,0.9979,0.2668,0.6784,-0.5640,0.012000
0.0704,0.0062,0.9984,0.3735,0.7393,-0.5183,0.012000
0.0706,0.0041,1.0013,0.3049,0.5640,-0.5793,0.012000
0.0708,0.0055,1.0002,0.3277,0.5945,-0.5793,0.012000
0.0683,0.0062,0.9991,0.3506,0.6021,-0.6479,0.012000
0.0707,0.0079,0.9995,0.3506,0.6098,-0.5793,0.012000
0.0649,0.0063,1.0041,0.2668,0.5716,-0.5564,0.012000
0.0688,0.0050,1.0033,0.2058,0.5488,-0.5335,0.012000
0.0698,0.0059,0.9991,0.4116,0.6860,-0.5107,0.012000
0.0731,0.0042,0.9959,0.1372,0.4573,-0.5412,0.012000
0.0702,0.0024,1.0022,0.2896,0.6174,-0.5107,0.012000
0.0705,0.0051,0.9990,0.3354,0.6021,-0.5945,0.012000
0.0696,0.0058,0.9988,0.2134,0.6326,-0.5030,0.012000
0.0715,0.0070,0.9998,0.2058,0.5716,-0.5412,0.012000
0.0704,0.0062,0.9973,0.3582,0.6631,-0.6326,0.012000
0.0685,0.0049,0.9999,0.3354,0.6250,-0.5640,0.012000
0.0704,0.0062,1.0006,0.3735,0.5488,-0.5564,0.012000
0.0696,0.0056,0.9976,0.3277,0.5793,-0.5259,0.012000
0.0704,0.0049,0.9980,0.3430,0.6174,-0.5488,0.012000
0.0687,0.0037,1.0002,0.3201,0.5564,-0.5564,0.012000
0.0690,0.0046,0.9982,0.3354,0.5640,-0.5259,0.012000
0.0723,0.0047,1.0011,0.3582,0.5030,-0.5488,0.012000
0.0725,0.0067,1.0024,0.2287,0.5259,-0.6021,0.012000
0.0692,0.0043,0.9984,0.3735,0.6479,-0.6021,0.012000
0.0685,0.0049,0.9995,0.2668,0.5945,-0.5030,0.012000
0.0663,0.0070,1.0012,0.2591,0.6860,-0.5945,0.012000
0.0703,0.0051,1.0001,0.2668,0.6021,-0.5335,0.012000
0.0694,0.0056,0.9980,0.2058,0.6021,-0.4649,0.012000
0.0694,0.0037,0.9985,0.3049,0.5183,-0.5412,0.012000
0.0715,0.0060,1.0003,0.2210,0.4878,-0.5716,0.012000
0.0706,0.0052,0.9993,0.2820,0.6174,-0.5640,0.012000
0.0705,0.0059,0.9988,0.2058,0.6326,-0.5335,0.012000
0.0674,0.0056,0.9999,0.1905,0.6174,-0.4954,0.012000
0.0686,0.0046,0.9993,0.3201,0.6021,-0.5488,0.012000
0.0694,0.0049,0.9993,0.3354,0.5564,-0.6021,0.012000
0.0682,0.0060,1.0019,0.2820,0.5030,-0.5183,0.012000
0.0693,0.0053,1.0002,0.2363,0.5793,-0.5335,0.012000
0.0666,0.0056,0.9985,0.2058,0.6250,-0.6021,0.012000
0.0682,0.0073,1.0010,0.2973,0.5869,-0.6098,0.012000
0.0704,0.0049,1.0001,0.3049,0.6021,-0.5869,0.012000
0.0708,0.0046,0.9977,0.3125,0.5488,-0.5564,0.012000
0.0693,0.0035,0.9966,0.2439,0.5640,-0.5564,0.012000
0.0688,0.0041,1.0010,0.2591,0.5640,-0.5412,0.012000
0.0684,0.0063,0.9991,0.2820,0.5412,-0.5716,0.012000
0.0682,0.0068,0.9990,0.2287,0.5412,-0.6098,0.012000
0.0715,0.0054,0.9995,0.2210,0.5412,-0.5793,0.012000
0.0701,0.0051,1.0001,0.3049,0.5335,-0.6326,0.012000
0.0696,0.0062,1.0001,0.2896,0.6250,-0.6250,0.012000
0.0687,0.0056,1.0014,0.1143,0.6021,-0.5107,0.012000
0.0713,0.0050,1.0007,0.2439,0.5945,-0.5259,0.012000
0.0681,0.0055,0.9982,0.2973,0.5488,-0.6174,0.012000
0.0688,0.0051,1.0014,0.3201,0.5107,-0.5564,0.012000
0.0704,0.0043,1.0007,0.4116,0.6250,-0.6174,0.012000
0.0701,0.0054,0.9979,0.3277,0.6174,-0.6326,0.012000
0.0687,0.0059,0.9987,0.2287,0.5564,-0.5412,0.012000
0.0699,0.0053,0.9987,0.3277,0.5488,-0.5412,0.012000
0.0688,0.0056,0.9976,0.3735,0.5564,-0.5716,0.012000
0.0698,0.0043,0.9998,0.2287,0.5564,-0.5793,0.012000
0.0703,0.0042,1.0023,0.3277,0.4497,-0.6555,0.012000
0.0710,0.0055,0.9992,0.3430,0.5945,-0.6555,0.012000
0.0699,0.0048,1.0006,0.2515,0.5488,-0.5640,0.012000
0.0682,0.0049,0.9988,0.2668,0.5488,-0.5564,0.012000
0.0687,0.0079,1.0005,0.3049,0.6098,-0.4802,0.012000
0.0689,0.0052,1.0033,0.2820,0.5564,-0.5793,0.012000
0.0685,0.0071,0.9975,0.2973,0.5564,-0.5793,0.012000
0.0690,0.0043,1.0010,0.3430,0.5183,-0.6174,0.012000
0.0714,0.0032,0.9982,0.3354,0.5183,-0.5564,0.012000
0.0696,0.0051,1.0010,0.2820,0.6402,-0.5716,0.012000
0.0677,0.0043,1.0004,0.1753,0.6174,-0.5107,0.012000
0.0684,0.0049,0.9997,0.2896,0.5335,-0.5869,0.012000
0.0687,0.0046,1.0000,0.2668,0.5488,-0.5640,0.012000
0.0706,0.0059,1.0001,0.2896,0.5412,-0.5793,0.012000
0.0687,0.0070,1.0011,0.2896,0.5259,-0.6098,0.012000
0.0695,0.0053,0.9987,0.3354,0.5259,-0.5335,0.012000
0.0698,0.0063,1.0022,0.2439,0.5412,-0.5107,0.012000
0.0698,0.0075,1.0016,0.2439,0.5640,-0.5488,0.012000
0.0698,0.0060,0.9987,0.2973,0.5869,-0.5869,0.012000
0.0692,0.0047,0.9994,0.2591,0.5564,-0.5716,0.012000
0.0691,0.0051,0.9985,0.4040,0.5945,-0.5945,0.012000
0.0717,0.0046,0.9996,0.3049,0.5640,-0.5488,0.012000
0.0704,0.0065,0.9988,0.1753,0.5793,-0.6479,0.012000
0.0684,0.0077,0.9969,0.3201,0.5869,-0.6174,0.012000
0.0692,0.0063,1.0005,0.2744,0.5640,-0.6021,0.012000
0.0693,0.0071,1.0009,0.3354,0.4726,-0.5869,0.012000
0.0679,0.0060,1.0003,0.2439,0.4802,-0.5183,0.012000
0.0699,0.0035,1.0003,0.2591,0.6098,-0.5564,0.012000
0.0701,0.0040,0.9986,0.3659,0.6326,-0.5640,0.012000
0.0687,0.0032,1.0012,0.3201,0.6021,-0.5716,0.012000
0.0694,0.0059,1.0010,0.2591,0.5869,-0.6250,0.012000
0.0679,0.0052,1.0010,0.3049,0.5945,-0.5869,0.012000
0.0690,0.0046,1.0021,0.1753,0.5564,-0.6250,0.012000
0.0694,0.0048,1.0001,0.3277,0.5869,-0.5716,0.012000
0.0671,0.0044,0.9983,0.3277,0.6555,-0.5564,0.012000
0.0676,0.0065,0.9987,0.2515,0.5716,-0.5640,0.012000
0.0703,0.0047,0.9979,0.2744,0.5488,-0.4954,0.012000
0.0709,0.0048,0.9986,0.2363,0.5412,-0.5335,0.012000
0.0728,0.0057,1.0041,0.3887,0.6021,-0.4878,0.012000
0.0713,0.0051,0.9998,0.0991,0.5412,-0.5259,0.012000
0.0683,0.0046,1.0000,0.3430,0.5564,-0.4878,0.012000
0.0698,0.0048,1.0001,0.2896,0.6784,-0.6326,0.012000
0.0708,0.0045,1.0021,0.3506,0.6098,-0.5945,0.012000
0.0700,0.0052,1.0037,0.2973,0.6098,-0.5335,0.012000
0.0681,0.0050,0.9984,0.2820,0.6555,-0.5183,0.012000
0.0687,0.0059,1.0014,0.2896,0.5564,-0.5869,0.012000
0.0703,0.0054,0.9987,0.2744,0.5640,-0.5945,0.012000
0.0701,0.0038,1.0001,0.1982,0.5640,-0.6021,0.012000
0.0681,0.0040,1.0014,0.2820,0.6098,-0.5716,0.012000
0.0704,0.0045,0.9985,0.2287,0.4954,-0.6555,0.012000
0.0702,0.0029,1.0007,0.3049,0.6098,-0.5945,0.012000
0.0690,0.0043,1.0004,0.2973,0.6402,-0.5030,0.012000
0.0690,0.0056,0.9988,0.2058,0.5716,-0.4954,0.012000
0.0685,0.0046,1.0007,0.2287,0.5259,-0.6250,0.012000
0.0694,0.0045,0.9993,0.2591,0.6098,-0.5793,0.012000
0.0703,0.0040,0.9993,0.2820,0.5488,-0.5793,0.012000
0.0704,0.0040,1.0005,0.3430,0.5259,-0.5869,0.012000
0.0695,0.0051,1.0008,0.3430,0.5640,-0.6326,0.012000
0.0697,0.0034,1.0026,0.3125,0.6326,-0.5640,0.012000
0.0687,0.0053,0.9995,0.2973,0.5945,-0.5488,0.012000
0.0699,0.0038,1.0018,0.3201,0.6402,-0.5945,0.012000
0.0712,0.0051,1.0002,0.2058,0.5869,-0.6098,0.012000
0.0692,0.0045,0.9969,0.2744,0.6479,-0.5488,0.012000
0.0699,0.0043,0.9987,0.3201,0.6250,-0.5107,0.012000
0.0695,0.0050,0.9998,0.3125,0.6021,-0.5488,0.012000
0.0688,0.0059,0.9966,0.2820,0.5945,-0.5945,0.012000
0.0708,0.0062,0.9998,0.2668,0.5869,-0.5716,0.012000
0.0690,0.0050,0.9996,0.3277,0.5412,-0.5640,0.012000
0.0694,0.0043,1.0002,0.3430,0.5259,-0.6021,0.012000
0.0674,0.0070,0.9989,0.3125,0.5030,-0.6631,0.012000
0.0673,0.0043,1.0005,0.3277,0.5716,-0.6021,0.012000
0.0691,0.0051,0.9988,0.2896,0.6250,-0.5793,0.012000
0.0711,0.0057,1.0003,0.2820,0.5869,-0.6555,0.012000
0.0693,0.0069,0.9999,0.2820,0.5716,-0.6098,0.012000
0.0685,0.0065,1.0009,0.2744,0.5869,-0.6174,0.012000
0.0698,0.0047,1.0014,0.1982,0.5793,-0.6250,0.012000
0.0692,0.0057,0.9998,0.3125,0.5335,-0.5564,0.012000
0.0707,0.0063,0.9990,0.3506,0.5335,-0.5869,0.012000
0.0687,0.0065,1.0017,0.2515,0.5640,-0.6402,0.012000
0.0685,0.0070,0.9999,0.2058,0.4954,-0.6174,0.012000
0.0682,0.0052,0.9984,0.3277,0.5412,-0.5412,0.012000
0.0689,0.0056,1.0004,0.2744,0.5869,-0.5793,0.012000
0.0703,0.0059,1.0001,0.2515,0.4954,-0.5488,0.012000
0.0679,0.0040,0.9992,0.2439,0.5945,-0.5030,0.012000
0.0685,0.0032,0.9990,0.2363,0.6021,-0.6174,0.012000
0.0712,0.0048,1.0015,0.3201,0.5488,-0.5640,0.012000
0.0721,0.0058,0.9986,0.2210,0.5716,-0.5030,0.012000
0.0699,0.0054,0.9989,0.2744,0.6250,-0.5259,0.012000
0.0687,0.0040,0.9995,0.2973,0.5945,-0.6707,0.012000
0.0694,0.0046,0.9997,0.3125,0.6098,-0.6631,0.012000
0.0702,0.0056,1.0010,0.2668,0.6098,-0.4802,0.012000
0.0717,0.0042,0.9980,0.2591,0.5488,-0.5488,0.012000
0.0738,0.0056,0.9974,1.9970,2.2866,-0.6936,0.012000
0.0881,0.0241,1.0054,1.6311,2.7134,-1.0061,0.012000
0.0685,0.0002,1.0139,2.5457,4.5808,-1.6006,0.012000
0.0481,-0.0069,0.9893,3.0183,5.2363,-0.9985,0.012000
0.0748,0.0233,0.9750,0.9299,2.5762,-0.7546,0.012000
0.0637,-0.0005,1.0063,-2.2866,-0.8537,-0.9070,0.012000
0.0697,-0.0058,0.9941,-0.6098,-0.1829,0.9604,0.012000
0.0518,0.0068,1.0016,-0.6250,-0.3506,1.7149,0.012000
0.0589,0.0186,1.0034,-0.4116,-0.2744,0.3735,0.012000
0.0606,-0.0015,0.9999,-0.3125,-0.3811,-0.7241,0.012000
0.0499,0.0000,1.0014,-0.1067,-0.8384,-0.2591,0.012000
0.0574,0.0005,0.9980,-0.9375,-1.9360,-0.2287,0.012000
0.1031,0.0268,1.0038,-1.1509,-2.5000,-0.3887,0.012000
0.0721,0.0041,1.0003,0.2210,-0.6021,-0.3887,0.012000
0.0618,0.0029,1.0005,0.1296,-0.5488,-0.3125,0.012000
0.0822,0.0023,0.9996,0.2591,0.1829,-1.1814,0.012000
0.0732,0.0053,1.0005,0.4649,0.8079,-0.6707,0.012000
0.0691,0.0056,1.0015,0.2973,0.8384,-0.4726,0.012000
0.0696,0.0045,0.9977,0.2287,0.9070,-0.6631,0.012000
0.0697,0.0061,0.9984,0.3354,1.0290,-0.6936,0.012000
0.0669,0.0065,1.0017,0.2896,0.8841,-0.6402,0.012000
0.0708,0.0063,1.0007,0.3277,0.4954,-0.5869,0.012000
0.0709,0.0054,1.0002,0.2973,0.3430,-0.5412,0.012000
0.0675,0.0048,1.0004,0.2363,0.3887,-0.5640,0.012000
0.0663,0.0047,0.9999,0.2134,0.4192,-0.5869,0.012000
0.0692,0.0045,0.9990,0.8613,1.0366,-0.6479,0.012000
0.0664,0.0113,0.9993,0.6936,1.1509,-0.7241,0.012000
0.0554,0.0343,1.0080,1.1509,1.7912,-2.1189,0.012000
0.0798,-0.0067,0.9987,1.8140,2.5076,-4.3521,0.012000
0.0635,0.0112,1.0009,1.4405,2.8430,-3.3994,0.012000
0.0545,0.0370,1.0067,1.0366,2.4924,-3.6128,0.012000
0.0854,0.0091,1.0274,2.1189,4.0320,-6.2652,0.012000
0.0605,0.0096,1.0367,6.0671,9.4665,-7.2866,0.012000
0.0673,0.0106,1.0237,11.0671,15.4726,-8.4527,0.012000
0.0649,-0.0462,0.9666,10.3201,14.8323,-7.9268,0.012000
0.0478,0.0028,0.9537,4.7256,7.6220,-1.9893,0.012000
0.0416,0.0295,0.9806,-1.0595,-0.4268,-0.1905,0.012000
0.0605,0.0200,0.9839,-4.6189,-5.4421,-0.6021,0.012000
0.0575,0.0101,1.0005,-6.6082,-7.7287,-0.6326,0.012000
0.0616,0.0109,0.9537,-9.9924,-12.3399,0.7622,0.012000
0.0759,-0.0150,1.0511,-15.0915,-18.0945,1.9665,0.012000
0.0458,0.0179,1.0047,-5.5107,-8.2622,2.8659,0.012000
0.0787,-0.0009,0.9915,0.2668,-1.6387,0.4954,0.012000
0.0558,0.0011,1.0016,1.1357,1.7759,-1.1509,0.012000
0.0882,0.0109,0.9998,-0.4192,-1.1890,-1.6921,0.012000
0.0892,0.0088,1.0013,-0.9832,-2.1494,-0.2591,0.012000
0.0599,0.0002,1.0015,-0.0838,-0.7317,-0.1220,0.012000
0.0678,0.0021,1.0007,0.4421,0.0991,-0.4192,0.012000
0.0691,0.0104,0.9995,0.5488,0.7698,-0.5564,0.012000
0.0698,0.0076,1.0009,-0.5488,-0.4421,-0.6631,0.012000
0.0819,0.0067,1.0010,-0.1220,0.0610,-0.7546,0.012000
0.0707,0.0018,0.9982,0.6784,1.1280,-0.6402,0.012000
0.0679,0.0006,1.0034,0.4192,0.9223,-0.6402,0.012000
0.0700,0.0004,0.9977,-0.0686,0.2896,-0.5412,0.012000
0.0682,0.0092,1.0015,0.3963,0.5640,-0.5412,0.012000
0.0657,0.0087,1.0018,0.4954,0.7546,-0.6555,0.012000
0.0668,0.0083,1.0006,0.3201,0.4192,-0.5869,0.012000
0.0681,0.0058,0.9997,0.1905,0.4268,-0.5869,0.012000
0.0713,0.0038,0.9989,0.3735,0.6784,-0.5716,0.012000
0.0696,0.0039,1.0014,0.3735,0.6479,-0.5793,0.012000
0.0692,0.0045,1.0010,0.2134,0.3735,-0.5640,0.012000
0.0693,0.0033,0.9989,0.2515,0.4726,-0.5412,0.012000
0.0709,0.0018,0.9990,0.2973,0.6784,-0.6098,0.012000
0.0718,0.0054,0.9996,0.3049,0.4878,-0.5640,0.012000
0.0685,0.0049,0.9995,0.2363,0.4573,-0.5259,0.012000
0.0662,0.0087,1.0018,0.2896,0.5793,-0.5488,0.012000
0.0645,0.0084,1.0001,0.2210,0.5945,-0.5716,0.012000
0.0661,0.0065,1.0029,0.2515,0.6555,-0.5564,0.012000
0.0650,0.0039,0.9988,0.2591,0.6098,-0.5488,0.012000
0.0698,0.0027,0.9977,0.3125,0.5564,-0.4954,0.012000
0.0732,0.0038,1.0007,0.3887,0.6021,-0.5640,0.012000
0.0712,0.0046,1.0002,0.3125,0.5259,-0.4802,0.012000
0.0725,0.0052,0.9994,0.2058,0.5107,-0.5183,0.012000
0.0648,0.0075,1.0010,0.3201,0.6860,-0.5335,0.012000
0.0667,0.0057,1.0007,0.3277,0.5869,-0.5640,0.012000
0.0661,0.0031,1.0008,0.1982,0.5869,-0.6098,0.012000
0.0680,0.0047,1.0015,0.2744,0.5412,-0.6402,0.012000
0.0700,0.0040,1.0023,0.3354,0.6631,-0.5945,0.012000
0.0688,0.0060,0.9999,0.3125,0.4726,-0.5793,0.012000
0.0685,0.0044,0.9991,0.2744,0.5564,-0.6479,0.012000
0.0696,0.0040,0.9985,0.2668,0.6250,-0.5564,0.012000
0.0709,0.0043,1.0023,0.2973,0.5488,-0.6174,0.012000
0.0698,0.0048,0.9999,0.2591,0.5716,-0.6021,0.012000
0.0684,0.0054,0.9990,0.2363,0.5412,-0.5640,0.012000
0.0670,0.0071,1.0021,0.2210,0.5564,-0.4878,0.012000
0.0674,0.0034,1.0009,0.3125,0.5488,-0.5869,0.012000
0.0669,0.0038,0.9987,0.2820,0.5716,-0.5945,0.012000
0.0700,0.0048,1.0035,0.3582,0.5640,-0.5107,0.012000
0.0727,0.0042,1.0002,0.2973,0.5945,-0.5640,0.012000
0.0722,0.0050,0.9990,0.3049,0.5716,-0.5107,0.012000
0.0715,0.0049,1.0004,0.2896,0.5869,-0.4497,0.012000
0.0694,0.0043,1.0023,0.1905,0.5183,-0.4802,0.012000
0.0648,0.0048,0.9987,0.2744,0.5640,-0.5945,0.012000
0.0680,0.0061,0.9989,0.2668,0.6936,-0.5793,0.012000
0.0679,0.0059,1.0011,0.2973,0.6021,-0.5412,0.012000
0.0695,0.0075,1.0016,0.2820,0.5412,-0.6021,0.012000
0.0710,0.0074,1.0018,0.2439,0.5869,-0.5793,0.012000
0.0703,0.0023,0.9978,0.2744,0.5716,-0.5793,0.012000
0.0692,0.0038,1.0018,0.2591,0.6402,-0.5793,0.012000
0.0695,0.0054,0.9999,0.2439,0.6555,-0.6402,0.012000
0.0691,0.0031,1.0008,0.2439,0.6326,-0.5564,0.012000
0.0692,0.0048,1.0010,0.3125,0.6402,-0.5640,0.012000
0.0671,0.0057,1.0030,0.4040,0.6631,-0.5945,0.012000
0.0676,0.0046,1.0034,0.3201,0.6402,-0.5335,0.012000
0.0671,0.0068,1.0018,0.2668,0.6250,-0.4345,0.012000
0.0676,0.0058,1.0002,0.2591,0.5259,-0.5640,0.012000
0.0683,0.0035,0.9998,0.2896,0.5412,-0.6479,0.012000
0.0716,0.0044,1.0009,0.3277,0.5335,-0.5640,0.012000
0.0701,0.0049,1.0002,0.2973,0.4878,-0.4878,0.012000
0.0649,0.0024,0.9993,0.2439,0.5335,-0.5564,0.012000
0.0676,0.0044,0.9996,0.2210,0.4573,-0.4649,0.012000
0.0696,0.0079,1.0012,0.2058,0.4802,-0.5564,0.012000
0.0693,0.0067,1.0010,0.2439,0.5107,-0.5335,0.012000
0.0693,0.0070,1.0006,0.2820,0.6326,-0.5640,0.012000
0.0696,0.0051,0.9995,0.2287,0.5793,-0.5869,0.012000
0.0688,0.0044,0.9980,0.1829,0.5945,-0.5869,0.012000
0.0682,0.0031,0.9973,0.3659,0.7470,-0.6250,0.012000
0.0688,0.0033,1.0011,0.3887,0.8765,-0.6479,0.012000
0.0687,0.0061,1.0009,0.3582,0.9451,-0.6098,0.012000
0.0675,0.0070,0.9990,0.3277,0.7851,-0.6174,0.012000
0.0651,0.0076,0.9992,0.2820,0.5412,-0.6479,0.012000
0.0680,0.0078,1.0019,0.2744,0.5716,-0.5335,0.012000
0.0652,0.0072,1.0011,0.2287,0.4573,-0.5030,0.012000
0.0678,0.0059,1.0020,0.2515,0.4116,-0.5107,0.012000
0.0693,0.0026,1.0012,0.2973,0.2668,-0.4726,0.012000
0.0685,0.0046,1.0016,0.2210,0.3430,-0.4573,0.012000
0.0707,0.0057,1.0002,0.2744,0.6250,-0.6098,0.012000
0.0701,0.0052,0.9987,0.2287,0.6326,-0.5945,0.012000
0.0687,0.0051,0.9965,0.2591,0.6555,-0.6402,0.012000
0.0679,0.0080,1.0002,0.3735,0.6479,-0.5945,0.012000
0.0670,0.0072,1.0005,0.3430,0.7317,-0.5030,0.012000
0.0657,0.0073,1.0012,0.3049,0.6326,-0.6555,0.012000
0.0681,0.0048,1.0001,0.3277,0.5030,-0.5488,0.012000
0.0694,0.0048,0.9996,0.3659,0.5183,-0.5640,0.012000
0.0691,0.0035,0.9992,0.2820,0.5030,-0.6098,0.012000
0.0705,0.0054,1.0013,0.2896,0.5412,-0.6021,0.012000
0.0703,0.0056,0.9991,0.2439,0.5564,-0.6250,0.012000
0.0674,0.0045,0.9995,0.2287,0.6098,-0.5335,0.012000
0.0675,0.0046,1.0011,0.2439,0.5716,-0.5716,0.012000
0.0679,0.0065,1.0010,0.2973,0.6326,-0.6098,0.012000
0.0674,0.0047,1.0014,0.3430,0.5945,-0.6174,0.012000
0.0684,0.0068,1.0001,0.3659,0.5716,-0.5259,0.012000
0.0701,0.0046,1.0009,0.2591,0.5869,-0.5412,0.012000
0.0695,0.0042,0.9988,0.2668,0.6402,-0.6250,0.012000
0.0699,0.0056,0.9990,0.2287,0.5030,-0.5259,0.012000
0.0674,0.0025,0.9996,0.4192,0.5716,-0.6631,0.012000
0.0688,0.0051,1.0007,0.3430,0.5564,-0.5335,0.012000
0.0678,0.0062,1.0017,0.2820,0.4878,-0.5945,0.012000
0.0690,0.0052,1.0011,0.2439,0.4878,-0.6402,0.012000
0.0705,0.0056,1.0006,0.2591,0.6174,-0.6174,0.012000
0.0658,0.0032,0.9987,0.2744,0.6098,-0.5183,0.012000
0.0681,0.0042,0.9988,0.3201,0.5412,-0.5259,0.012000
0.0710,0.0071,0.9979,0.3277,0.5335,-0.5793,0.012000
0.0730,0.0048,1.0012,0.2515,0.5716,-0.6098,0.012000
0.0692,0.0056,0.9998,0.2134,0.5716,-0.5335,0.012000
0.0678,0.0035,0.9994,0.3582,0.6402,-0.5412,0.012000
0.0668,0.0040,0.9987,0.2973,0.5564,-0.6021,0.012000
0.0669,0.0051,0.9988,0.3582,0.4954,-0.5793,0.012000
0.0670,0.0050,0.9991,0.3430,0.5640,-0.6021,0.012000
0.0701,0.0046,1.0004,0.2973,0.4954,-0.5412,0.012000
0.0704,0.0045,0.9999,0.2439,0.4802,-0.4878,0.012000
0.0687,0.0054,1.0011,0.1982,0.5793,-0.4878,0.012000
0.0685,0.0054,0.9994,0.1905,0.5793,-0.5488,0.012000
0.0688,0.0022,0.9971,0.2058,0.5335,-0.6326,0.012000
0.0687,0.0046,1.0041,0.2973,0.5640,-0.5793,0.012000
0.0695,0.0056,1.0017,0.3582,0.5869,-0.5107,0.012000
0.0672,0.0071,1.0008,0.3354,0.5564,-0.5640,0.012000
0.0690,0.0069,1.0020,0.2515,0.5488,-0.5716,0.012000
0.0684,0.0053,1.0019,0.3049,0.5793,-0.5412,0.012000
0.0679,0.0052,1.0009,0.2515,0.5335,-0.5945,0.012000
0.0708,0.0045,1.0008,0.2591,0.5869,-0.5335,0.012000
0.0698,0.0049,0.9996,0.1982,0.6174,-0.5793,0.012000
0.0695,0.0050,0.9995,0.2973,0.6021,-0.6021,0.012000
0.0697,0.0035,0.9991,0.3201,0.6402,-0.6098,0.012000
0.0692,0.0059,0.9998,0.2287,0.5488,-0.5412,0.012000
0.0693,0.0062,0.9998,0.2134,0.5412,-0.5183,0.012000
0.0693,0.0062,1.0015,0.3125,0.5793,-0.6098,0.012000
0.0680,0.0056,1.0005,0.3887,0.5945,-0.5564,0.012000
0.0682,0.0065,0.9995,0.3125,0.5793,-0.5107,0.012000
0.0696,0.0036,1.0002,0.3125,0.5335,-0.5945,0.012000
0.0709,0.0045,0.9990,0.1829,0.5107,-0.6098,0.012000
0.0676,0.0053,1.0024,0.2973,0.5412,-0.6250,0.012000
0.0690,0.0046,1.0008,0.3963,0.5488,-0.5488,0.012000
0.0693,0.0074,1.0017,0.2210,0.6631,-0.5335,0.012000
0.0690,0.0056,1.0009,0.2744,0.6250,-0.5945,0.012000
0.0690,0.0065,0.9973,0.2973,0.5030,-0.6021,0.012000
0.0681,0.0045,0.9986,0.3354,0.6098,-0.6098,0.012000
0.0681,0.0045,1.0006,0.2744,0.5716,-0.6784,0.012000
0.0706,0.0043,0.9995,0.3735,0.4802,-0.5259,0.012000
0.0695,0.0064,1.0008,0.2744,0.4878,-0.5259,0.012000
0.0716,0.0055,1.0012,0.2439,0.5259,-0.5640,0.012000
0.0696,0.0063,1.0001,0.1982,0.6250,-0.4878,0.012000
0.0670,0.0043,0.9982,0.2820,0.5107,-0.4573,0.012000
0.0684,0.0074,1.0016,0.2820,0.6021,-0.5716,0.012000
0.0684,0.0051,1.0018,0.3049,0.5640,-0.6402,0.012000
0.0685,0.0054,1.0018,0.1905,0.6174,-0.6479,0.012000
0.0698,0.0042,0.9997,0.2591,0.6555,-0.6098,0.012000
0.0684,0.0031,0.9984,0.3430,0.5564,-0.5869,0.012000
0.0705,0.0056,1.0026,0.2515,0.5945,-0.5335,0.012000
0.0709,0.0045,1.0017,0.2134,0.6479,-0.5716,0.012000
0.0683,0.0060,0.9999,0.1829,0.5640,-0.5793,0.012000
0.0681,0.0082,1.0004,0.2668,0.5716,-0.5945,0.012000
0.0688,0.0056,1.0024,0.2439,0.5793,-0.5945,0.012000
0.0681,0.0057,1.0009,0.2210,0.5945,-0.6098,0.012000
0.0667,0.0042,1.0020,0.3506,0.6326,-0.5716,0.012000
0.0688,0.0044,0.9997,0.2973,0.5793,-0.5488,0.012000
0.0702,0.0035,0.9996,0.2134,0.5869,-0.5564,0.012000
0.0684,0.0056,1.0004,0.2210,0.5030,-0.5335,0.012000
0.0701,0.0064,1.0020,0.3049,0.5793,-0.5869,0.012000
0.0682,0.0054,1.0031,0.2439,0.6021,-0.6021,0.012000
0.0682,0.0040,1.0004,0.3506,0.5564,-0.5793,0.012000
0.0700,0.0059,0.9988,0.3201,0.6250,-0.5945,0.012000
0.0665,0.0040,1.0015,0.3125,0.5030,-0.5869,0.012000
0.0670,0.0046,1.0005,0.2820,0.5107,-0.5716,0.012000
0.0688,0.0042,1.0009,0.3506,0.6174,-0.5945,0.012000
0.0714,0.0040,1.0017,0.3354,0.5869,-0.5793,0.012000
0.0714,0.0058,1.0010,0.3963,0.4573,-0.5793,0.012000
0.0673,0.0049,1.0004,0.1753,0.4726,-0.6098,0.012000
0.0664,0.0051,1.0003,0.2515,0.4878,-0.6174,0.012000
0.0695,0.0055,0.9993,0.2896,0.5640,-0.5945,0.012000
0.0701,0.0060,1.0026,0.3125,0.6479,-0.6174,0.012000
0.0699,0.0063,1.0016,0.2973,0.5335,-0.5716,0.012000
0.0685,0.0033,0.9980,0.2591,0.5869,-0.5640,0.012000
0.0698,0.0028,1.0007,0.2668,0.5640,-0.6250,0.012000
0.0701,0.0063,1.0002,0.3354,0.5107,-0.6021,0.012000
0.0715,0.0057,1.0004,0.3963,0.5412,-0.5259,0.012000
0.0707,0.0056,0.9980,0.3887,0.5945,-0.5259,0.012000
0.0691,0.0054,0.9995,0.2515,0.4573,-0.5183,0.012000
0.0695,0.0044,0.9974,0.3354,0.5030,-0.5488,0.012000
0.0715,0.0053,0.9990,0.2896,0.6402,-0.6174,0.012000
0.0692,0.0048,1.0018,0.2058,0.5716,-0.5793,0.012000
0.0670,0.0038,0.9996,0.2058,0.5716,-0.5564,0.012000
0.0685,0.0046,0.9999,0.2363,0.6174,-0.5564,0.012000
0.0702,0.0070,1.0009,0.2820,0.6631,-0.5640,0.012000
0.0729,0.0048,0.9991,0.2591,0.5716,-0.4954,0.012000
0.0704,0.0031,1.0015,0.2439,0.4573,-0.4954,0.012000
0.0677,0.0029,0.9968,0.2820,0.5945,-0.5945,0.012000
0.0709,0.0059,1.0002,0.3887,0.4878,-0.5716,0.012000
0.0698,0.0049,1.0013,0.2973,0.5335,-0.6555,0.012000
0.0689,0.0054,0.9991,0.2973,0.6021,-0.6555,0.012000
0.0692,0.0050,1.0014,0.3430,0.6021,-0.6631,0.012000
0.0695,0.0065,1.0001,0.1601,0.6250,-0.4878,0.012000
0.0696,0.0042,1.0002,0.2896,0.5564,-0.5564,0.012000
0.0690,0.0049,1.0020,0.2439,0.5716,-0.6479,0.012000
0.0697,0.0040,1.0003,0.3354,0.5716,-0.6479,0.012000
0.0671,0.0054,0.9996,0.3811,0.5716,-0.5716,0.012000
0.0693,0.0037,1.0002,0.3506,0.6250,-0.5640,0.012000
0.0670,0.0055,0.9977,0.2744,0.6021,-0.5564,0.012000
0.0695,0.0043,0.9983,0.4192,0.5488,-0.5793,0.012000
0.0672,0.0054,0.9987,0.3506,0.5945,-0.5107,0.012000
0.0655,0.0061,0.9993,0.3430,0.5869,-0.5030,0.012000
0.0667,0.0062,1.0001,0.3201,0.4573,-0.5869,0.012000
0.0701,0.0066,1.0027,0.3354,0.5183,-0.5335,0.012000
0.0696,0.0048,1.0001,0.1753,0.5488,-0.5564,0.012000
0.0682,0.0048,1.0016,0.2515,0.5183,-0.5335,0.012000
0.0703,0.0070,0.9992,0.3201,0.6250,-0.5107,0.012000
0.0701,0.0059,1.0010,0.2820,0.5335,-0.5640,0.012000
0.0678,0.0047,0.9996,0.2896,0.6021,-0.5259,0.012000
0.0679,0.0056,0.9992,0.2363,0.5183,-0.5793,0.012000
0.0696,0.0044,1.0012,0.3277,0.5716,-0.6174,0.012000
0.0671,0.0049,0.9999,0.2820,0.6021,-0.5412,0.012000
0.0668,0.0042,1.0003,0.2668,0.6250,-0.5564,0.012000
0.0679,0.0051,1.0006,0.2896,0.5488,-0.5564,0.012000
0.0694,0.0051,1.0007,0.3277,0.4573,-0.5412,0.012000
0.0710,0.0048,1.0005,0.3506,0.5869,-0.5030,0.012000
0.0690,0.0047,0.9976,0.2896,0.5107,-0.6326,0.012000
0.0690,0.0052,1.0008,0.2439,0.5640,-0.5335,0.012000
0.0695,0.0057,1.0014,0.2058,0.5869,-0.5030,0.012000
0.0703,0.0057,1.0007,0.2744,0.6174,-0.5335,0.012000
0.0709,0.0067,0.9996,0.2668,0.6250,-0.5335,0.012000
0.0701,0.0058,0.9993,0.1753,0.5716,-0.5564,0.012000
0.0687,0.0056,1.0002,0.2439,0.6784,-0.5412,0.012000
0.0697,0.0045,1.0001,0.3277,0.5869,-0.5640,0.012000
0.0692,0.0070,0.9993,0.1905,0.6250,-0.6174,0.012000
0.0683,0.0056,1.0002,0.3201,0.5716,-0.5564,0.012000
0.0679,0.0060,0.9995,0.2591,0.6479,-0.5259,0.012000
0.0697,0.0056,0.9999,0.2210,0.5640,-0.5335,0.012000
0.0692,0.0063,1.0030,0.2744,0.5793,-0.5869,0.012000
0.0695,0.0052,0.9996,0.1829,0.5716,-0.5564,0.012000
0.0674,0.0056,0.9994,0.3201,0.6174,-0.5640,0.012000
0.0668,0.0063,1.0007,0.3125,0.5793,-0.5183,0.012000
0.0663,0.0042,0.9995,0.2744,0.5716,-0.5793,0.012000
0.0689,0.0035,0.9973,0.2820,0.5716,-0.6021,0.012000
0.0688,0.0048,0.9988,0.2973,0.5945,-0.5488,0.012000
0.0693,0.0045,0.9989,0.3201,0.6098,-0.5793,0.012000
0.0680,0.0043,1.0009,0.4116,0.5716,-0.5259,0.012000
0.0672,0.0052,1.0004,0.3735,0.6250,-0.6098,0.012000
0.0690,0.0046,1.0007,0.3582,0.5412,-0.5412,0.012000
0.0688,0.0043,1.0010,0.3277,0.5640,-0.5793,0.012000
0.0677,0.0050,1.0008,0.1677,0.5488,-0.6555,0.012000
0.0711,0.0042,1.0015,0.2058,0.5107,-0.6631,0.012000
0.0696,0.0064,1.0002,0.2439,0.6402,-0.5640,0.012000
0.0698,0.0054,0.9996,0.2896,0.5564,-0.6555,0.012000
0.0682,0.0027,0.9999,0.2668,0.6174,-0.5945,0.012000
0.0677,0.0052,0.9997,0.3582,0.5793,-0.5716,0.012000
0.0691,0.0056,0.9990,0.4116,0.5716,-0.5488,0.012000
0.0690,0.0063,0.9983,0.2896,0.5869,-0.6174,0.012000
0.0696,0.0052,1.0012,0.2820,0.5793,-0.5564,0.012000
0.0685,0.0057,1.0005,0.2973,0.5488,-0.5412,0.012000
0.0704,0.0043,0.9995,0.2134,0.5716,-0.5107,0.012000
0.0703,0.0043,0.9990,0.2591,0.5716,-0.5716,0.012000
0.0692,0.0035,1.0012,0.2744,0.5640,-0.5869,0.012000
0.0706,0.0046,0.9993,0.1829,0.6174,-0.5869,0.012000
0.0684,0.0060,1.0000,0.3659,0.5869,-0.5335,0.012000
0.0690,0.0056,0.9989,0.2134,0.5640,-0.5869,0.012000
0.0712,0.0051,1.0021,0.2363,0.5564,-0.6555,0.012000
0.0693,0.0043,1.0010,0.2973,0.5183,-0.5640,0.012000
0.0681,0.0051,1.0002,0.2744,0.5412,-0.4954,0.012000
0.0673,0.0058,0.9996,0.2363,0.5716,-0.5412,0.012000
0.0704,0.0057,1.0010,0.1296,0.5793,-0.5259,0.012000
0.0704,0.0033,0.9993,0.2973,0.5488,-0.5945,0.012000
0.0706,0.0041,0.9988,0.3277,0.5716,-0.4802,0.012000
0.0697,0.0051,1.0009,0.2973,0.6402,-0.6174,0.012000
0.0679,0.0045,1.0016,0.2515,0.5259,-0.5183,0.012000
0.0697,0.0067,1.0004,0.1982,0.5793,-0.5716,0.012000
0.0692,0.0056,1.0006,0.3277,0.6098,-0.5488,0.012000
0.0683,0.0068,0.9996,0.3201,0.5259,-0.6174,0.012000
0.0669,0.0062,1.0002,0.2515,0.6326,-0.5259,0.012000
0.0698,0.0052,0.9982,0.2058,0.5945,-0.5640,0.012000
0.0681,0.0057,1.0002,0.3125,0.5412,-0.5488,0.012000
0.0696,0.0051,0.9995,0.2744,0.5793,-0.5488,0.012000
0.0708,0.0054,0.9995,0.2363,0.6402,-0.5488,0.012000
0.0684,0.0059,1.0008,0.3582,0.6174,-0.5640,0.012000
0.0703,0.0053,1.0013,0.2515,0.5793,-0.6402,0.012000
0.0692,0.0061,0.9988,0.2820,0.5869,-0.5412,0.012000
0.0677,0.0041,0.9988,0.3735,0.5412,-0.5259,0.012000
0.0667,0.0037,0.9999,0.2820,0.5640,-0.5716,0.012000
0.0688,0.0066,0.9995,0.2058,0.6250,-0.5564,0.012000
0.0677,0.0052,0.9995,0.3354,0.5564,-0.5488,0.012000
0.0692,0.0023,0.9987,0.2363,0.6555,-0.6021,0.012000
0.0699,0.0040,1.0002,0.2591,0.5259,-0.5488,0.012000
0.0704,0.0071,0.9993,0.2287,0.5488,-0.5335,0.012000
0.0697,0.0053,0.9998,0.2591,0.5716,-0.6098,0.012000
0.0669,0.0047,1.0019,0.2896,0.5716,-0.6326,0.012000
0.0681,0.0064,0.9999,0.2363,0.5945,-0.6555,0.012000
0.0690,0.0053,0.9980,0.2668,0.6021,-0.6250,0.012000
0.0697,0.0058,1.0020,0.3735,0.6250,-0.5793,0.012000
0.0679,0.0050,1.0016,0.2668,0.4649,-0.5793,0.012000
0.0689,0.0067,1.0005,0.2210,0.6021,-0.5869,0.012000
0.0692,0.0056,0.9991,0.2896,0.6402,-0.4954,0.012000
0.0700,0.0049,0.9990,0.2439,0.5259,-0.6174,0.012000
0.0692,0.0052,1.0012,0.3125,0.5945,-0.5869,0.012000
0.0680,0.0050,0.9995,0.1905,0.5183,-0.5793,0.012000
0.0684,0.0053,1.0005,0.2363,0.5869,-0.5564,0.012000
0.0709,0.0063,1.0013,0.3049,0.5869,-0.5030,0.012000
0.0676,0.0059,0.9999,0.2744,0.6631,-0.5869,0.012000
0.0674,0.0038,1.0005,0.3049,0.5793,-0.6174,0.012000
0.0707,0.0065,1.0015,0.2744,0.5793,-0.5793,0.012000
0.0701,0.0029,0.9984,0.3125,0.5640,-0.5335,0.012000
0.0699,0.0039,1.0007,0.3049,0.5869,-0.5412,0.012000
0.0704,0.0050,1.0002,0.2210,0.5869,-0.6021,0.012000
0.0701,0.0040,1.0027,0.2287,0.6021,-0.5869,0.012000
0.0702,0.0056,0.9986,0.2668,0.6021,-0.5107,0.012000
0.0685,0.0060,1.0004,0.2363,0.5412,-0.6174,0.012000
0.0682,0.0051,1.0015,0.2591,0.5869,-0.5107,0.012000
0.0699,0.0049,1.0007,0.3049,0.5335,-0.5488,0.012000
0.0677,0.0056,0.9996,0.2668,0.6707,-0.4802,0.012000
0.0688,0.0057,1.0013,0.2439,0.5564,-0.5869,0.012000
0.0705,0.0059,1.0018,0.2363,0.6021,-0.6707,0.012000
0.0691,0.0062,1.0016,0.3582,0.6250,-0.6479,0.012000
0.0684,0.0057,1.0005,0.2973,0.5259,-0.5412,0.012000
0.0680,0.0068,1.0011,0.3430,0.6098,-0.6479,0.012000
0.0698,0.0057,1.0009,0.2210,0.5716,-0.5793,0.012000
0.0682,0.0051,1.0025,0.2363,0.5259,-0.5412,0.012000
0.0680,0.0052,0.9988,0.2896,0.5869,-0.5869,0.012000
0.0695,0.0041,1.0010,0.3125,0.5716,-0.5412,0.012000
0.0678,0.0052,0.9985,0.2668,0.5945,-0.5793,0.012000
0.0692,0.0043,0.9999,0.2287,0.5335,-0.5335,0.012000
0.0723,0.0031,1.0004,0.3125,0.5869,-0.6326,0.012000
0.0692,0.0046,1.0005,0.3277,0.5945,-0.6250,0.012000
0.0673,0.0066,1.0001,0.3735,0.5335,-0.6784,0.012000
0.0691,0.0062,1.0015,0.1905,0.5640,-0.5183,0.012000
0.0696,0.0046,0.9995,0.2058,0.6402,-0.5564,0.012000
0.0693,0.0040,0.9969,0.2973,0.5793,-0.5793,0.012000
0.0701,0.0049,1.0024,0.3201,0.5412,-0.6021,0.012000
0.0690,0.0045,1.0027,0.2896,0.5640,-0.5488,0.012000
0.0723,0.0049,1.0009,0.2439,0.6098,-0.5564,0.012000
0.0678,0.0051,0.9991,0.3049,0.5107,-0.5793,0.012000
0.0676,0.0061,0.9993,0.2363,0.5107,-0.5335,0.012000
0.0696,0.0062,0.9997,0.1982,0.6402,-0.5488,0.012000
0.0705,0.0067,0.9996,0.2896,0.5945,-0.5564,0.012000
0.0696,0.0048,0.9986,0.2744,0.5564,-0.6098,0.012000
0.0682,0.0055,1.0031,0.2134,0.5183,-0.5716,0.012000
0.0673,0.0049,0.9992,0.2287,0.6021,-0.4878,0.012000
0.0690,0.0051,0.9979,0.2591,0.5335,-0.5945,0.012000
0.0688,0.0045,1.0001,0.2210,0.5488,-0.5945,0.012000
0.0715,0.0054,0.9987,0.2439,0.6250,-0.5945,0.012000
0.0698,0.0047,1.0015,0.3811,0.6174,-0.5640,0.012000
0.0696,0.0042,0.9998,0.2287,0.5107,-0.5793,0.012000
0.0672,0.0043,1.0001,0.2515,0.5183,-0.5793,0.012000
0.0692,0.0050,1.0001,0.3887,0.6326,-0.5183,0.012000
0.0702,0.0052,1.0016,0.3049,0.5716,-0.5259,0.012000
0.0699,0.0064,1.0023,0.3277,0.5335,-0.5640,0.012000
0.0721,0.0053,1.0002,0.2210,0.5259,-0.5030,0.012000
0.0686,0.0046,1.0008,0.1905,0.5793,-0.6250,0.012000
0.0692,0.0049,0.9987,0.2515,0.6250,-0.6098,0.012000
0.0690,0.0054,1.0005,0.2896,0.6555,-0.5640,0.012000
0.0697,0.0060,1.0014,0.2896,0.5412,-0.5640,0.012000
0.0669,0.0046,1.0014,0.1829,0.4726,-0.6326,0.012000
0.0673,0.0050,1.0003,0.2134,0.5412,-0.5488,0.012000
0.0695,0.0052,1.0014,0.1524,0.5030,-0.5183,0.012000
0.0688,0.0060,1.0012,0.1677,0.5640,-0.5259,0.012000
0.0711,0.0055,1.0009,0.2668,0.5564,-0.5335,0.012000
0.0685,0.0052,1.0026,0.1982,0.5488,-0.5335,0.012000
0.0690,0.0046,0.9980,0.2134,0.5564,-0.5335,0.012000
0.0703,0.0055,0.9992,0.3354,0.5183,-0.5640,0.012000
0.0683,0.0051,0.9987,0.3201,0.5564,-0.6402,0.012000
0.0670,0.0052,1.0011,0.2973,0.5869,-0.7088,0.012000
0.0663,0.0038,1.0001,0.2820,0.5564,-0.5793,0.012000
0.0684,0.0052,1.0018,0.2210,0.5564,-0.5107,0.012000
0.0696,0.0053,1.0005,0.3735,0.6555,-0.4954,0.012000
0.0690,0.0049,1.0005,0.4116,0.5183,-0.5488,0.012000
0.0692,0.0053,0.9999,0.3125,0.5183,-0.5640,0.012000
0.0674,0.0038,0.9977,0.2744,0.5945,-0.5793,0.012000
0.0676,0.0037,0.9981,0.3506,0.5107,-0.6479,0.012000
0.0687,0.0049,0.9999,0.3277,0.5488,-0.5335,0.012000
0.0685,0.0057,1.0001,0.3735,0.5640,-0.5869,0.012000
0.0682,0.0058,1.0013,0.2515,0.5564,-0.5564,0.012000
0.0698,0.0056,1.0003,0.2134,0.5564,-0.6326,0.012000
0.0710,0.0060,1.0004,0.2668,0.6098,-0.5488,0.012000
0.0700,0.0044,1.0013,0.2668,0.5183,-0.5183,0.012000
0.0675,0.0061,1.0001,0.3201,0.5107,-0.5869,0.012000
0.0682,0.0045,1.0005,0.3430,0.5564,-0.6098,0.012000
0.0713,0.0054,1.0001,0.1982,0.5793,-0.6021,0.012000
0.0702,0.0052,1.0029,0.3506,0.5412,-0.5793,0.012000
0.0708,0.0037,0.9990,0.3049,0.5259,-0.4878,0.012000
0.0677,0.0056,1.0024,0.4040,0.5335,-0.4573,0.012000
0.0687,0.0075,1.0023,0.3582,0.5412,-0.6021,0.012000
0.0693,0.0059,0.9990,0.2896,0.6174,-0.5335,0.012000
0.0694,0.0054,0.9985,0.2896,0.5259,-0.5716,0.012000
0.0687,0.0052,1.0015,0.1829,0.5716,-0.5183,0.012000
0.0676,0.0060,1.0002,0.2820,0.6021,-0.6174,0.012000
0.0692,0.0051,1.0009,0.2744,0.4954,-0.6021,0.012000
0.0689,0.0049,1.0009,0.3201,0.5335,-0.6631,0.012000
0.0692,0.0045,1.0009,0.4040,0.5335,-0.5640,0.012000
0.0715,0.0044,1.0013,0.3354,0.6021,-0.5716,0.012000
0.0705,0.0056,1.0035,0.2287,0.5716,-0.6479,0.012000
0.0692,0.0062,1.0012,0.2744,0.5945,-0.5945,0.012000
0.0677,0.0040,0.9977,0.3277,0.5869,-0.5945,0.012000
0.0670,0.0042,1.0003,0.3430,0.5869,-0.6021,0.012000
0.0681,0.0049,0.9995,0.3354,0.5945,-0.6021,0.012000
0.0695,0.0045,0.9998,0.3506,0.5793,-0.6021,0.012000
0.0710,0.0071,1.0021,0.3125,0.5793,-0.4802,0.012000
0.0695,0.0057,1.0001,0.3125,0.6555,-0.6402,0.012000
0.0714,0.0054,0.9987,0.3201,0.5716,-0.6174,0.012000
0.0684,0.0060,0.9995,0.2058,0.4726,-0.5869,0.012000
0.0685,0.0068,1.0005,0.3659,0.5564,-0.5183,0.012000
0.0690,0.0052,1.0008,0.2744,0.6174,-0.5793,0.012000
0.0679,0.0052,1.0010,0.2896,0.5793,-0.5564,0.012000
0.0692,0.0043,1.0012,0.1601,0.5183,-0.5869,0.012000
0.0705,0.0046,1.0005,0.2134,0.6021,-0.5640,0.012000
0.0692,0.0063,0.9999,0.2896,0.5488,-0.5412,0.012000
0.0669,0.0040,1.0012,0.2668,0.5259,-0.5183,0.012000
0.0684,0.0054,0.9998,0.2439,0.5869,-0.5335,0.012000
0.0677,0.0057,1.0018,0.1677,0.5716,-0.5640,0.012000
0.0691,0.0076,0.9969,0.1982,0.6021,-0.6250,0.012000
0.0698,0.0054,0.9987,0.2591,0.5412,-0.5412,0.012000
0.0696,0.0073,1.0010,0.3049,0.5335,-0.5488,0.012000
0.0699,0.0060,1.0023,0.1982,0.5945,-0.5716,0.012000
0.0681,0.0049,1.0019,0.1829,0.4954,-0.5640,0.012000
0.0696,0.0056,0.9991,0.3201,0.6098,-0.5564,0.012000
0.0718,0.0042,1.0023,0.3582,0.5716,-0.5564,0.012000
0.0695,0.0047,0.9992,0.2744,0.5716,-0.5488,0.012000
0.0692,0.0042,1.0005,0.2668,0.5793,-0.4878,0.012000
0.0698,0.0051,0.9991,0.2896,0.5869,-0.5793,0.012000
0.0699,0.0057,0.9995,0.2058,0.6555,-0.6021,0.012000
0.0695,0.0056,0.9996,0.3049,0.5793,-0.5869,0.012000
0.0691,0.0052,1.0025,0.3354,0.5793,-0.5183,0.012000
0.0673,0.0052,0.9995,0.2134,0.5183,-0.5945,0.012000
0.0687,0.0037,1.0007,0.2744,0.5564,-0.6098,0.012000
0.0712,0.0048,1.0006,0.3125,0.5716,-0.5945,0.012000
0.0701,0.0037,1.0009,0.2744,0.5716,-0.5640,0.012000
0.0687,0.0057,0.9990,0.1982,0.4802,-0.5488,0.012000
0.0685,0.0050,1.0000,0.2515,0.4954,-0.5640,0.012000
0.0684,0.0052,1.0023,0.2744,0.6021,-0.6250,0.012000
0.0693,0.0057,1.0009,0.3277,0.6021,-0.7393,0.012000
0.0682,0.0065,0.9994,0.3659,0.5716,-0.6021,0.012000
0.0704,0.0050,1.0008,0.2363,0.5640,-0.5412,0.012000
0.0704,0.0043,1.0012,0.3506,0.7470,-0.6326,0.012000
0.0834,0.0072,1.0019,0.3811,1.0595,-0.7241,0.012000
0.0991,-0.0077,1.0000,0.8079,1.5930,0.3049,0.012000
0.0911,0.0048,0.9958,0.6784,1.8979,2.0884,0.012000
0.0980,0.0039,0.9990,0.7698,2.9116,2.8582,0.012000
0.0746,-0.0031,0.9942,1.2195,3.7729,3.9710,0.012000
0.0782,0.0044,1.0001,1.3948,4.0244,4.8095,0.012000
0.1435,0.0823,1.0071,1.6768,3.8720,4.0015,0.012000
0.0201,-0.0329,1.0001,0.3887,3.0335,-0.9375,0.012000
0.0003,-0.0151,0.9943,2.3095,2.8887,1.0899,0.012000
-0.0238,0.0034,1.0160,0.9070,1.8293,1.2424,0.012000
0.0558,0.0043,1.0027,-0.4726,0.3506,-0.5183,0.012000
0.0740,0.0051,0.9993,0.2363,0.3430,-0.6174,0.012000
0.0618,0.0063,1.0007,0.3277,0.2363,-0.4802,0.012000
0.0659,0.0079,1.0021,-0.0229,-0.5716,-0.4497,0.012000
0.0663,0.0058,1.0004,-0.1677,-0.9527,-0.5259,0.012000
0.0652,0.0054,1.0003,0.0457,-0.4040,-0.5107,0.012000
0.0651,0.0069,1.0030,0.2515,-0.1524,-0.5869,0.012000
0.0667,0.0073,1.0012,0.0229,-0.1220,-0.4649,0.012000
0.0673,0.0054,0.9983,0.1677,0.1829,-0.4649,0.012000
0.0675,0.0065,1.0008,0.3049,0.5564,-0.5412,0.012000
0.0674,0.0067,0.9995,0.3735,0.6707,-0.6860,0.012000
0.0662,0.0073,1.0002,0.2973,0.7546,-0.6707,0.012000
0.0668,0.0064,1.0014,0.3735,0.7774,-0.6326,0.012000
0.0662,0.0048,0.9987,0.4649,0.9223,-0.6250,0.012000
0.0645,0.0074,0.9995,0.5488,0.9985,-0.6631,0.012000
0.0612,0.0065,0.9999,0.4954,0.9451,-0.8308,0.012000
0.0648,0.0060,1.0003,0.4802,0.6555,-0.8994,0.012000
0.0622,0.0050,1.0027,0.3582,0.4649,-0.7622,0.012000
0.0630,0.0014,1.0041,0.3506,0.1905,-0.7622,0.012000
0.0407,0.0018,1.0035,0.3506,0.0838,-0.8384,0.012000
0.0551,0.0264,0.9977,-0.1524,-0.7165,-1.5473,0.012000
0.0331,0.0206,0.9971,-0.6479,-1.6006,-3.8643,0.012000
0.0803,0.0062,1.0020,-0.6936,-2.3780,-5.8003,0.012000
0.0718,-0.0059,1.0011,0.0534,-1.8826,-5.3659,0.012000
0.0972,-0.0203,1.0027,0.1448,-1.7835,-3.2165,0.012000
0.0568,0.0026,1.0021,0.1448,-1.4405,-0.4040,0.012000
0.0743,0.0081,1.0023,-0.2668,-1.3567,0.1982,0.012000
0.0605,0.0004,0.9987,0.2744,-0.3277,0.1220,0.012000
0.0466,0.0123,0.9995,0.3125,0.2973,0.8003,0.012000
0.0825,0.0107,1.0024,0.7088,1.3186,2.7439,0.012000
0.0970,0.0126,0.9996,0.1982,0.1220,1.8445,0.012000
0.0718,0.0039,0.9991,0.0534,0.6326,-0.3049,0.012000
0.0720,0.0057,0.9994,0.5412,1.1128,-0.5335,0.012000
0.0688,0.0050,0.9987,0.2896,0.8003,-0.5488,0.012000
0.0686,0.0037,0.9996,0.0457,0.3277,-0.5259,0.012000
0.0700,0.0059,0.9991,0.1753,0.2439,-0.5488,0.012000
0.0667,0.0052,1.0004,0.3582,0.2439,-0.5030,0.012000
0.0686,0.0046,1.0005,0.1677,-0.0915,-0.3430,0.012000
0.0729,0.0048,0.9998,0.1829,-0.0838,-0.2744,0.012000
0.0706,0.0051,1.0004,0.2058,0.2134,-0.4268,0.012000
0.0698,0.0032,0.9981,0.2515,0.4345,-0.5488,0.012000
0.0690,0.0060,1.0002,0.2287,0.5335,-0.6402,0.012000
0.0698,0.0043,1.0000,0.2896,0.7012,-0.6860,0.012000
0.0710,0.0057,0.9997,0.3430,0.6707,-0.5030,0.012000
0.0726,0.0077,1.0011,0.2515,0.6479,-0.5640,0.012000
0.0714,0.0059,0.9993,0.2668,0.6631,-0.5564,0.012000
0.0743,0.0070,0.9985,0.4726,0.9832,-0.5869,0.012000
0.0714,0.0017,0.9998,0.6021,1.0595,-0.3430,0.012000
0.0605,0.0052,1.0002,0.5183,0.9070,-0.0457,0.012000
0.0691,0.0082,0.9999,0.1143,0.6021,-0.4954,0.012000
0.0846,0.0054,1.0001,0.1982,0.6098,-0.3049,0.012000
0.0894,-0.0013,1.0005,0.0076,0.7165,0.5945,0.012000
0.0679,0.0056,0.9993,-0.0152,0.9223,1.6921,0.012000
0.0598,0.0027,1.0031,-0.2134,0.6936,1.7835,0.012000
0.0627,0.0106,0.9998,-0.0610,0.6250,1.3872,0.012000
0.0811,0.0178,1.0026,0.0686,0.8232,1.0595,0.012000
0.0995,0.0295,1.0076,0.2896,-0.4345,1.1052,0.012000
0.0552,-0.0092,0.9934,0.4649,-2.3552,2.6982,0.012000
0.0428,-0.0109,1.0249,1.5168,-0.1143,2.1723,0.012000
0.0687,0.0043,1.0322,3.4070,2.5305,1.2348,0.012000
0.0512,-0.0091,1.0078,6.3034,5.1296,1.0671,0.012000
0.0319,0.0134,0.9962,6.5930,4.9543,1.2348,0.012000
0.0558,0.0053,1.0002,6.0747,4.6341,0.1372,0.012000
0.0746,-0.0022,1.0109,5.8308,3.8262,0.4268,0.012000
0.0888,0.0280,1.0320,6.1738,3.0335,1.1128,0.012000
0.0764,0.0082,1.0261,4.6646,0.1296,0.6402,0.012000
0.0322,0.0323,0.9746,3.3841,5.1982,0.8689,0.012000
0.0220,0.0169,0.9490,5.6784,11.4177,-1.2271,0.012000
0.0314,0.0163,0.9806,12.0579,10.9070,0.4192,0.012000
0.0290,0.0250,1.0155,4.7027,4.1159,2.7134,0.012000
0.0306,0.0561,1.0504,-1.0747,-1.8293,0.8994,0.012000
0.0585,0.0497,1.0214,-8.2851,-2.2713,-0.1905,0.012000
0.0757,0.0198,0.9794,-14.5198,-1.5701,1.6235,0.012000
0.0685,-0.0037,0.9858,-14.2683,-1.4939,2.6372,0.012000
0.0826,-0.0068,1.0214,-11.3491,-7.1037,4.4055,0.012000
0.0794,-0.0023,1.0367,-9.3445,-18.5442,3.8872,0.012000
0.0602,0.0079,1.0297,-8.5823,-31.5244,2.7515,0.012000
0.0654,0.0182,1.0299,-7.4162,-43.5823,2.9573,0.012000
0.1406,0.0339,1.0511,-4.4588,-50.1448,4.2988,0.012000
0.1293,0.0185,1.1325,24.5046,-9.1082,1.1585,0.012000
0.1282,-0.0187,1.0464,34.5046,23.6814,-8.5518,0.012000
0.1437,-0.0115,0.9601,30.8537,23.6128,-9.3369,0.012000
0.1378,-0.0054,1.0251,37.2256,6.5091,-8.1326,0.012000
0.0511,0.0316,1.0261,38.7881,2.5229,-6.8140,0.012000
0.0687,0.0370,0.9052,27.7668,11.3262,-11.4177,0.012000
0.0247,0.0434,0.9418,19.6723,6.3567,-8.8872,0.012000
-0.0092,0.0943,1.0071,9.8704,1.7759,-7.3933,0.012000
0.0223,0.0953,1.0583,-1.7912,4.8933,-8.7424,0.012000
0.0676,0.0188,0.9929,-13.0869,15.7012,-11.5015,0.012000
0.1052,-0.0005,1.0170,4.7790,23.0564,-10.2591,0.012000
0.0573,0.0242,1.0308,25.4192,18.3384,-4.9924,0.012000
0.0436,0.0499,1.0291,31.8064,14.6341,-3.2622,0.012000
0.0543,0.0542,1.0121,37.3399,14.9695,-3.6585,0.012000
0.0433,0.0413,0.9414,28.3308,15.3735,-4.1006,0.012000
0.0579,0.0535,0.9457,23.2470,13.2088,-3.5518,0.012000
0.0872,0.0650,0.9969,20.2973,9.1616,-2.9573,0.012000
0.0853,0.0679,1.0452,22.4848,8.2393,-2.5762,0.012000
0.0784,0.0677,1.0432,26.7378,15.4345,-4.2302,0.012000
0.0721,0.0800,0.9979,32.1570,25.5412,-6.9360,0.012000
0.0607,0.0897,1.0135,32.6601,14.1921,-6.0518,0.012000
0.0482,0.0966,1.0286,32.6143,1.1052,-5.5945,0.012000
0.0945,0.1052,1.0660,33.1326,-3.3155,-6.5930,0.012000
0.1075,0.1086,1.0781,36.2576,4.0473,-8.7043,0.012000
0.0466,0.1418,1.0242,44.3369,16.0976,-12.1951,0.012000
0.0405,0.1526,1.0264,47.0427,11.1585,-12.6220,0.012000
0.0242,0.1719,1.0584,48.1174,5.2287,-11.9436,0.012000
0.0101,0.1926,1.0771,49.8171,6.2195,-11.0671,0.012000
0.0338,0.2344,1.0845,54.0854,13.3384,-11.4634,0.012000
0.0320,0.2139,0.9954,69.0777,26.0061,-11.4710,0.012000
0.0152,0.2191,1.0015,72.4848,23.3079,-11.5168,0.012000
-0.0217,0.2530,1.0008,71.6768,19.8247,-10.4649,0.012000
-0.0203,0.2709,1.0161,68.5823,15.6402,-9.2454,0.012000
0.0005,0.2817,1.0522,68.2546,16.2348,-8.9863,0.012000
-0.0298,0.2952,0.9999,78.4985,29.6418,-9.9543,0.012000
-0.0432,0.3080,0.9916,83.0335,34.0244,-10.2896,0.012000
-0.0456,0.3203,0.9791,85.2896,37.3552,-10.1905,0.012000
-0.0486,0.3243,0.9500,84.8857,39.4817,-10.1677,0.012000
-0.0721,0.3465,0.9412,83.1936,42.2256,-10.8994,0.012000
-0.0477,0.3683,0.9720,83.9406,48.0869,-11.5701,0.012000
-0.0090,0.3795,1.0134,87.3399,57.7591,-14.0549,0.012000
0.0043,0.3762,1.0619,95.7241,70.9756,-19.4360,0.012000
-0.0330,0.3640,1.0319,109.5427,84.6037,-24.9543,0.012000
-0.0773,0.4374,0.9175,129.2302,92.1570,-27.4009,0.012000
-0.1378,0.4531,0.8131,116.0137,78.7195,-18.1860,0.012000
-0.1151,0.3976,0.7932,106.2500,69.8018,-14.6341,0.012000
-0.1436,0.4533,0.8228,101.5625,79.9543,-21.8140,0.012000
-0.1750,0.4867,0.8788,98.7576,84.3064,-23.8110,0.012000
-0.2034,0.4702,0.8369,109.3293,85.3125,-20.5640,0.012000
-0.2213,0.5079,0.8101,105.8003,78.8034,-19.3064,0.012000
-0.2250,0.5325,0.8361,100.0152,67.7058,-16.2119,0.012000
-0.2205,0.5542,0.8470,98.2393,63.9482,-13.3537,0.012000
-0.2032,0.5642,0.8307,100.4954,66.5473,-13.6357,0.012000
-0.2315,0.5646,0.7877,109.0168,71.9360,-20.4497,0.012000
-0.2924,0.5800,0.7749,109.7637,66.2043,-20.7241,0.012000
-0.3482,0.6056,0.7544,107.5305,60.0534,-16.4710,0.012000
-0.3234,0.6116,0.7233,104.2759,55.9375,-10.4421,0.012000
-0.2742,0.6304,0.6749,100.4116,49.2607,-6.9360,0.012000
-0.3286,0.6463,0.7011,93.8872,39.9314,-7.6829,0.012000
-0.3693,0.6566,0.6747,94.9009,38.7043,-5.7927,0.012000
-0.3352,0.6574,0.6592,94.3064,34.2378,-1.9131,0.012000
-0.3386,0.6583,0.6210,90.4268,28.1098,0.8613,0.012000
-0.2831,0.6883,0.6060,82.6524,26.8902,1.4558,0.012000
-0.3205,0.7072,0.6129,82.8354,34.6189,-1.2957,0.012000
-0.3383,0.7143,0.6136,85.7927,39.3064,-2.9421,0.012000
-0.3442,0.7162,0.6041,88.9939,36.8979,-1.9436,0.012000
-0.3398,0.7205,0.5692,89.9162,28.7576,0.5030,0.012000
-0.3103,0.7230,0.5074,85.5412,17.2180,2.1646,0.012000
-0.3120,0.7363,0.4879,83.8110,21.2652,1.0976,0.012000
-0.2961,0.7474,0.4885,83.1326,27.2485,-1.2805,0.012000
-0.2975,0.7411,0.5056,83.6585,32.7210,-5.2058,0.012000
-0.3440,0.7501,0.5024,86.2348,34.8933,-7.6753,0.012000
-0.3406,0.7385,0.4788,93.6662,26.5549,-5.4726,0.012000
-0.3406,0.7574,0.4311,94.5656,21.4787,-3.9329,0.012000
-0.3069,0.7741,0.3774,94.0854,23.2088,-4.4970,0.012000
-0.2935,0.7697,0.3448,92.8354,29.8323,-8.1784,0.012000
-0.3060,0.7662,0.3277,91.1966,37.6982,-13.6280,0.012000
-0.3721,0.7750,0.2974,82.5076,29.5122,-15.5945,0.012000
-0.3863,0.7881,0.3028,75.2363,20.6784,-12.5915,0.012000
-0.3677,0.7986,0.2759,69.4588,17.7134,-10.1372,0.012000
-0.3562,0.8033,0.2460,65.6402,16.8750,-10.1982,0.012000
-0.3547,0.8090,0.2278,61.8445,16.5930,-12.3018,0.012000
-0.3894,0.8226,0.2115,51.0366,9.4360,-13.2774,0.012000
-0.3978,0.8231,0.2032,43.1707,4.8552,-11.2729,0.012000
-0.4101,0.8269,0.1906,35.6479,2.4771,-8.9558,0.012000
-0.4089,0.8276,0.1765,28.6509,2.8201,-7.2713,0.012000
-0.4005,0.8342,0.1724,22.1570,5.4878,-6.9360,0.012000
-0.4140,0.8349,0.1888,9.0701,6.0518,-7.4848,0.012000
-0.4214,0.8365,0.2197,2.8735,2.0427,-6.2805,0.012000
-0.4201,0.8435,0.2455,-0.8613,-1.6540,-3.9863,0.012000
-0.4188,0.8474,0.2587,-2.4924,-3.1936,-2.0046,0.012000
-0.4069,0.8527,0.2623,-1.7988,-1.6692,-1.8521,0.012000
-0.4213,0.8614,0.2656,-1.3338,-0.9146,-1.8521,0.012000
-0.4141,0.8608,0.2949,-0.6936,1.7607,-2.0351,0.012000
-0.4013,0.8570,0.2913,0.9375,6.2500,-2.6296,0.012000
-0.4086,0.8579,0.2757,2.1494,7.0274,-3.2774,0.012000
-0.4132,0.8624,0.2635,2.7439,2.6829,-2.6677,0.012000
-0.4197,0.8654,0.2567,1.6235,1.4253,-2.3857,0.012000
-0.4174,0.8669,0.2665,-0.2896,-0.5335,-1.5320,0.012000
-0.4142,0.8640,0.2786,-2.3552,-2.2942,-0.1448,0.012000
-0.4225,0.8626,0.2807,-3.3460,-2.8659,0.6326,0.012000
-0.4277,0.8568,0.2796,-2.9040,-3.2698,2.4162,0.012000
-0.4286,0.8551,0.2758,-3.0640,-4.3826,3.7043,0.012000
-0.4274,0.8556,0.2603,-3.8872,-7.2180,5.2591,0.012000
-0.4233,0.8574,0.2525,-6.2729,-11.7530,7.2256,0.012000
-0.4109,0.8605,0.2549,-10.0991,-15.1601,8.9787,0.012000
-0.3990,0.8625,0.2747,-15.2439,-16.2500,10.2515,0.012000
-0.3954,0.8634,0.2914,-15.8232,-15.5183,9.3598,0.012000
-0.3849,0.8639,0.2913,-15.8613,-15.6860,8.8186,0.012000
-0.3676,0.8668,0.3214,-15.1753,-15.8155,8.1326,0.012000
-0.3599,0.8764,0.3031,-11.7302,-11.7530,6.2500,0.012000
-0.3618,0.8766,0.3043,-6.1280,-4.5351,1.5168,0.012000
-0.3676,0.8729,0.2987,-6.2652,-3.0793,-0.0686,0.012000
-0.3827,0.8733,0.3066,-6.9665,-2.6448,-0.5335,0.012000
-0.3975,0.8749,0.3133,-7.3095,-3.6814,0.2896,0.012000
-0.3959,0.8794,0.3125,-9.6494,-10.0076,3.9634,0.012000
-0.3903,0.8813,0.3212,-11.0518,-11.6616,5.2896,0.012000
-0.3902,0.8765,0.3104,-11.8750,-12.5838,6.4329,0.012000
-0.3829,0.8763,0.3093,-13.1326,-13.8186,6.8140,0.012000
-0.3787,0.8766,0.3325,-13.9329,-12.9726,6.5396,0.012000
-0.3636,0.8689,0.3227,-9.5198,-4.2073,4.5503,0.012000
-0.3621,0.8704,0.3213,-8.3460,-1.5091,2.4162,0.012000
-0.3658,0.8667,0.3254,-8.0488,0.4573,0.6631,0.012000
-0.3705,0.8618,0.3235,-7.7134,0.8155,-0.0534,0.012000
-0.3746,0.8597,0.3112,-8.0716,-1.3948,0.0076,0.012000
-0.3858,0.8516,0.3099,-12.1723,-6.7759,1.9436,0.012000
-0.3796,0.8495,0.3019,-14.6570,-8.2088,3.0793,0.012000
-0.3770,0.8427,0.2891,-17.5305,-9.6875,3.7195,0.012000
-0.3727,0.8447,0.2797,-21.7454,-11.1662,3.8567,0.012000
-0.3743,0.8480,0.2852,-26.9207,-13.8643,4.0549,0.012000
-0.3777,0.8502,0.3163,-36.2043,-21.0518,4.6113,0.012000
-0.3664,0.8476,0.3771,-38.7881,-21.9131,4.6037,0.012000
-0.3560,0.8380,0.4000,-37.9726,-19.1768,5.1067,0.012000
-0.3542,0.8325,0.3884,-34.9390,-16.1357,5.2058,0.012000
-0.3488,0.8412,0.3732,-32.2256,-15.2058,4.5808,0.012000
-0.3561,0.8434,0.3961,-34.8171,-18.9939,3.7043,0.012000
-0.3560,0.8393,0.4139,-36.5930,-19.1997,3.7195,0.012000
-0.3634,0.8457,0.4321,-36.6921,-18.1784,4.2835,0.012000
-0.3636,0.8434,0.4739,-34.4284,-14.7027,5.1067,0.012000
-0.3438,0.8370,0.4256,-27.2866,-5.4649,5.3582,0.012000
-0.3384,0.8320,0.4174,-27.9649,-8.1707,4.7256,0.012000
-0.3435,0.8254,0.4320,-30.4116,-11.7683,4.5960,0.012000
-0.3484,0.8216,0.4514,-31.7302,-12.7363,4.7713,0.012000
-0.3483,0.8145,0.4545,-31.1280,-11.9665,5.3277,0.012000
-0.3347,0.8112,0.4213,-33.2088,-16.6692,6.7912,0.012000
-0.3254,0.8100,0.4180,-38.0107,-21.9665,6.9741,0.012000
-0.3079,0.8090,0.4611,-43.3079,-26.1509,6.3796,0.012000
-0.3044,0.7954,0.4858,-45.6860,-25.3049,5.2210,0.012000
-0.3038,0.7902,0.4794,-45.9756,-22.3399,3.5366,0.012000
-0.2926,0.7806,0.4878,-48.1784,-20.7851,-0.3659,0.012000
-0.2940,0.7770,0.5002,-50.2896,-22.3247,-1.0290,0.012000
-0.2990,0.7686,0.5121,-51.6387,-23.5518,-1.4177,0.012000
-0.3016,0.7609,0.5260,-52.7058,-24.3521,-1.5091,0.012000
-0.2881,0.7524,0.5637,-51.8293,-23.7043,-1.5091,0.012000
-0.2839,0.7509,0.5646,-45.4421,-14.9695,-2.8277,0.012000
-0.2888,0.7565,0.5318,-44.1006,-12.9497,-4.2149,0.012000
-0.2812,0.7468,0.5251,-45.8460,-14.3674,-5.8460,0.012000
-0.2767,0.7372,0.5411,-49.1616,-17.3095,-7.7591,0.012000
-0.2848,0.7299,0.5676,-52.0579,-19.6113,-9.2759,0.012000
-0.3004,0.7190,0.5961,-55.4726,-25.1372,-8.6509,0.012000
-0.3123,0.7151,0.6306,-56.5625,-24.9543,-7.0579,0.012000
-0.3171,0.7122,0.6420,-56.4710,-21.4101,-4.9009,0.012000
-0.3186,0.7052,0.6438,-54.0549,-16.1966,-2.9192,0.012000
-0.2997,0.6929,0.6110,-49.1540,-14.2226,-0.3201,0.012000
-0.2979,0.6830,0.6001,-50.6326,-18.5442,0.5640,0.012000
-0.3102,0.6786,0.6199,-53.9710,-22.9268,1.6082,0.012000
-0.3239,0.6724,0.6374,-56.8293,-27.1723,3.4985,0.012000
-0.3314,0.6694,0.6376,-59.4284,-32.8430,6.5396,0.012000
-0.2906,0.6617,0.6276,-66.4558,-43.7729,12.6982,0.012000
-0.2750,0.6483,0.6187,-70.9527,-47.4009,14.3216,0.012000
-0.2632,0.6417,0.6508,-75.8156,-48.4223,14.5884,0.012000
-0.2505,0.6314,0.6832,-79.4131,-44.2226,14.3216,0.012000
-0.2426,0.6339,0.7305,-80.2591,-38.5671,13.9558,0.012000
-0.1913,0.6054,0.8140,-69.3826,-29.5198,10.9756,0.012000
-0.1806,0.6024,0.7799,-63.2851,-27.2866,8.2165,0.012000
-0.1827,0.5930,0.7255,-61.5701,-27.5915,5.8232,0.012000
-0.1747,0.5803,0.6902,-65.2820,-29.4207,3.7424,0.012000
-0.1696,0.5609,0.6703,-73.6433,-32.2942,2.2409,0.012000
-0.2052,0.5409,0.7749,-89.3140,-31.5930,1.0366,0.012000
-0.2125,0.5338,0.8447,-90.2439,-26.0747,2.9268,0.012000
-0.2047,0.5145,0.8823,-86.6006,-23.0030,5.8384,0.012000
-0.1839,0.4995,0.8737,-82.0732,-25.7393,8.2698,0.012000
-0.1562,0.4891,0.8351,-79.3369,-32.3323,9.0473,0.012000
-0.1456,0.4501,0.7606,-86.0976,-43.7500,7.0351,0.012000
-0.1609,0.4478,0.7878,-94.8781,-44.7942,5.9299,0.012000
-0.1621,0.4399,0.8600,-101.9131,-39.9848,5.1753,0.012000
-0.1683,0.4206,0.9053,-103.4680,-32.7058,5.9070,0.012000
-0.1143,0.3929,0.9492,-93.3003,-32.8354,8.0412,0.012000
-0.0950,0.3749,0.9323,-89.3902,-40.3811,7.6905,0.012000
-0.0974,0.3552,0.8973,-89.4588,-47.8659,6.6311,0.012000
-0.1066,0.3386,0.8846,-92.9573,-53.6509,6.1204,0.012000
-0.1022,0.3312,0.9400,-97.8049,-54.6951,6.4558,0.012000
-0.1194,0.2917,0.9716,-99.8476,-41.7302,8.6662,0.012000
-0.0986,0.3002,0.9778,-93.1860,-36.9893,10.7241,0.012000
-0.0730,0.2802,0.9670,-92.5534,-34.6418,11.1814,0.012000
-0.0569,0.2677,0.9816,-92.5457,-36.9893,10.9299,0.012000
-0.0493,0.2559,0.9977,-91.3719,-41.7073,10.3506,0.012000
-0.0431,0.2224,0.9958,-89.5046,-41.2424,8.6738,0.012000
-0.0377,0.2128,0.9755,-88.9634,-37.3247,7.6829,0.012000
-0.0270,0.1935,0.9387,-90.9832,-33.2393,6.5777,0.012000
-0.0187,0.1756,0.9193,-95.6479,-32.0198,6.2424,0.012000
-0.0386,0.1723,0.9323,-101.1204,-37.0046,7.1799,0.012000
-0.0607,0.1352,1.0201,-109.2759,-48.3994,11.0747,0.012000
-0.0380,0.1177,1.0298,-109.0854,-51.9741,14.5503,0.012000
0.0044,0.0942,1.0276,-109.0854,-56.0899,17.6220,0.012000
0.0358,0.0807,1.0264,-109.3979,-58.1936,18.6128,0.012000
0.0464,0.0640,1.0085,-109.8094,-57.8049,18.0335,0.012000
0.0621,0.0271,1.0516,-109.4817,-53.7348,14.8704,0.012000
0.0875,0.0081,1.0842,-106.1433,-49.3902,14.3445,0.012000
0.1100,-0.0040,1.1287,-98.8567,-42.1037,13.8948,0.012000
0.1124,-0.0255,1.1077,-87.6296,-32.3399,12.9040,0.012000
0.1105,-0.0430,1.0251,-78.3384,-24.4817,11.1585,0.012000
0.1148,-0.0602,1.0018,-73.1860,-18.3384,9.2302,0.012000
0.1188,-0.0836,1.0005,-75.5183,-19.2454,9.1616,0.012000
0.1310,-0.0991,1.0157,-77.2713,-21.7302,8.7500,0.012000
0.1407,-0.1147,1.0237,-77.3247,-22.2561,8.1860,0.012000
0.1107,-0.1414,1.0014,-75.9985,-19.1006,7.2637,0.012000
0.1041,-0.1497,0.9973,-76.0747,-22.2409,8.7881,0.012000
0.1130,-0.1703,0.9985,-77.2256,-29.6037,11.0671,0.012000
0.1250,-0.1796,1.0262,-79.2378,-36.5777,12.6829,0.012000
0.1381,-0.1902,1.0546,-79.5351,-38.5290,13.2393,0.012000
0.1371,-0.2156,1.0179,-71.8674,-28.9482,12.0046,0.012000
0.1473,-0.2371,0.9820,-68.4451,-23.9024,11.2652,0.012000
0.1591,-0.2556,0.9348,-68.9787,-22.3552,11.0290,0.012000
0.1471,-0.2664,0.9193,-73.4223,-28.1250,11.6463,0.012000
0.1475,-0.2680,0.9474,-79.3369,-40.2287,13.7271,0.012000
0.1906,-0.2945,1.0512,-83.7271,-54.5960,17.9649,0.012000
0.2222,-0.3267,1.0638,-78.7348,-47.3095,17.6524,0.012000
0.2174,-0.3381,1.0114,-71.1662,-36.1128,15.8460,0.012000
0.2091,-0.3448,0.9547,-66.3338,-28.0564,13.2851,0.012000
0.2098,-0.3485,0.9283,-66.4939,-22.7973,10.6555,0.012000
0.1940,-0.3611,0.9470,-70.7012,-19.1159,9.4512,0.012000
0.1909,-0.3759,0.9312,-70.3887,-14.6341,9.7256,0.012000
0.1953,-0.3931,0.8837,-70.2134,-8.9177,9.6799,0.012000
0.2065,-0.4218,0.8342,-72.7591,-4.5351,9.1006,0.012000
0.2103,-0.4337,0.7938,-79.3674,-4.1692,8.3003,0.012000
0.2220,-0.4507,0.8160,-97.1570,-19.1768,7.3857,0.012000
0.2328,-0.4684,0.8686,-102.6296,-23.1021,6.5854,0.012000
0.2198,-0.4811,0.8752,-102.1037,-18.8567,5.9451,0.012000
0.2109,-0.4926,0.8480,-99.4360,-12.0274,5.1601,0.012000
0.2073,-0.4979,0.8693,-91.1966,-11.5091,5.3659,0.012000
0.2216,-0.5186,0.8871,-85.7851,-15.0229,6.0442,0.012000
0.2175,-0.5276,0.8826,-80.0152,-17.8201,6.1585,0.012000
0.2104,-0.5413,0.8579,-73.4146,-19.5351,6.3872,0.012000
0.2056,-0.5555,0.8065,-67.7287,-19.6875,6.9512,0.012000
0.2116,-0.5798,0.7532,-67.5229,-18.8491,7.2104,0.012000
0.2102,-0.5927,0.7619,-70.4802,-15.7622,7.1418,0.012000
0.2018,-0.5905,0.7762,-71.0290,-11.5625,7.3476,0.012000
0.1979,-0.5898,0.7835,-69.1235,-8.9939,8.1098,0.012000
0.2020,-0.5959,0.7919,-65.8384,-8.7957,9.1997,0.012000
0.2045,-0.6154,0.7761,-56.8369,-9.5046,10.1067,0.012000
0.2009,-0.6296,0.7535,-54.2302,-9.8857,10.6707,0.012000
0.2024,-0.6334,0.7335,-53.5671,-10.0000,11.1890,0.012000
0.2054,-0.6428,0.7241,-54.1540,-10.2134,11.3948,0.012000
0.2185,-0.6550,0.6957,-54.9162,-11.1204,11.6006,0.012000
0.2346,-0.6727,0.6667,-59.7485,-17.2256,12.6448,0.012000
0.2390,-0.6729,0.6739,-62.1570,-18.7805,12.3628,0.012000
0.2295,-0.6900,0.6756,-63.4070,-18.8720,11.4253,0.012000
0.2111,-0.7018,0.6890,-63.4070,-18.6128,11.1280,0.012000
0.2100,-0.7077,0.7039,-62.5915,-18.0412,12.2637,0.012000
0.2197,-0.7177,0.6947,-59.0015,-12.0960,13.1555,0.012000
0.2280,-0.7362,0.6776,-56.4482,-8.3537,12.6829,0.012000
0.2549,-0.7295,0.7815,-49.5274,-2.6067,10.5183,0.012000
0.2556,-0.7195,0.7524,-31.2195,7.5762,7.0579,0.012000
0.2025,-0.7563,0.6163,-26.3034,20.3277,3.8338,0.012000
0.2131,-0.7510,0.6053,-26.8216,19.1006,3.5290,0.012000
0.2156,-0.7681,0.6086,-29.1692,17.9192,3.1174,0.012000
0.2045,-0.7564,0.6305,-30.7165,17.8049,3.1936,0.012000
0.2005,-0.7492,0.6697,-30.1143,17.7363,3.5976,0.012000
0.2089,-0.7582,0.6685,-24.4360,19.6189,4.1082,0.012000
0.2151,-0.7584,0.6567,-22.9802,18.1555,4.0701,0.012000
0.2094,-0.7669,0.6352,-21.2195,14.4512,3.9482,0.012000
0.2030,-0.7819,0.6187,-20.9985,9.7027,3.5595,0.012000
0.1967,-0.7720,0.6161,-22.0046,5.7546,2.9878,0.012000
0.1971,-0.7689,0.6353,-20.7393,2.5381,2.6067,0.012000
0.2040,-0.7696,0.6376,-18.5061,2.1646,2.4085,0.012000
0.2129,-0.7806,0.6353,-16.8064,1.0366,2.0579,0.012000
0.2162,-0.7934,0.6211,-15.0838,-0.1677,1.4634,0.012000
0.2090,-0.7953,0.5927,-14.5732,-2.1418,1.1585,0.012000
0.2112,-0.7885,0.5784,-17.7287,-7.4390,0.0381,0.012000
0.2062,-0.7790,0.5893,-17.8811,-8.5290,-0.5107,0.012000
0.1971,-0.7761,0.6019,-16.6692,-7.9497,-0.9756,0.012000
0.1954,-0.7757,0.5942,-14.4741,-6.7759,-1.4329,0.012000
0.1880,-0.7924,0.5382,-12.5457,-6.1585,-1.6540,0.012000
0.1899,-0.7858,0.5297,-11.7149,-6.8902,-1.9055,0.012000
0.1918,-0.7851,0.5416,-11.7454,-7.0351,-2.3018,0.012000
0.2014,-0.7938,0.5571,-10.9299,-5.0838,-2.6220,0.012000
0.2186,-0.8000,0.5394,-9.3521,-2.0351,-2.1341,0.012000
0.2123,-0.7991,0.4951,-9.2988,-7.9878,-1.1052,0.012000
0.2120,-0.7979,0.5182,-10.5564,-15.2058,-0.8155,0.012000
0.2017,-0.8075,0.5460,-10.7927,-18.4451,-0.5793,0.012000
0.1823,-0.8121,0.5518,-9.2454,-16.7759,-0.5564,0.012000
0.1758,-0.8159,0.5517,-7.3399,-12.1494,-0.1677,0.012000
0.1835,-0.8184,0.5580,-4.0091,-2.8277,1.4939,0.012000
0.2002,-0.8210,0.5552,-2.4162,0.1677,2.3933,0.012000
0.2263,-0.8114,0.5344,-1.1357,-0.1677,3.2698,0.012000
0.2294,-0.8095,0.5336,-1.3110,-4.8095,3.5518,0.012000
0.2236,-0.8117,0.5316,-1.4634,-10.5335,3.4223,0.012000
0.2142,-0.8527,0.5378,-2.6601,-14.9085,2.7439,0.012000
0.1925,-0.8177,0.5632,-3.7424,-12.2332,2.7058,0.012000
0.1798,-0.8466,0.6018,-1.8902,-9.5274,4.0625,0.012000
0.1622,-0.9439,0.6118,1.7759,-3.6585,11.0442,0.012000
0.2502,-0.7318,0.5107,3.8415,2.2561,15.8689,0.012000
0.2073,-0.8546,0.5883,0.9985,-1.9970,5.4192,0.012000
0.2148,-0.8402,0.5571,0.9299,1.5168,7.2713,0.012000
0.2418,-0.7802,0.5334,0.2363,1.8674,6.2805,0.012000
0.2236,-0.7815,0.5318,-0.8155,-3.9558,4.5122,0.012000
0.2193,-0.8034,0.5217,-2.5686,-12.1723,3.0107,0.012000
0.2136,-0.8044,0.5770,-5.8994,-17.8125,1.5549,0.012000
0.2076,-0.8072,0.5865,-4.4588,-15.8232,0.9756,0.012000
0.2017,-0.8036,0.5942,-1.8064,-10.9299,0.1220,0.012000
0.2144,-0.8227,0.5778,1.0747,-4.9466,-0.4345,0.012000
0.2050,-0.8063,0.5439,0.8308,-2.3171,-0.4497,0.012000
0.1997,-0.8062,0.5601,-0.0686,-5.1982,0.2896,0.012000
0.2039,-0.8123,0.5740,-0.6936,-6.6387,0.9070,0.012000
0.1978,-0.8137,0.5876,-0.4268,-5.3887,1.4558,0.012000
0.1820,-0.8202,0.5782,1.3491,-3.2774,2.5305,0.012000
0.2404,-0.8340,0.6222,2.9421,3.7729,3.7729,0.012000
0.2559,-0.8422,0.6395,8.2317,12.8277,3.4070,0.012000
0.2563,-0.8292,0.6520,15.9146,21.4939,1.6845,0.012000
0.1931,-0.8528,0.5460,22.9497,30.3354,0.5259,0.012000
0.1965,-0.7677,0.3127,25.3201,22.7134,2.7668,0.012000
0.2353,-0.8022,0.5609,-1.8521,-8.7271,1.1357,0.012000
0.2203,-0.7904,0.6451,-0.0762,-3.9939,-0.7317,0.012000
0.1980,-0.7676,0.5972,5.8613,3.0183,-1.4177,0.012000
0.1873,-0.7944,0.5851,6.5473,4.1387,-2.4619,0.012000
0.1935,-0.8223,0.6021,5.8308,5.5716,-3.1174,0.012000
0.2106,-0.8121,0.5879,6.8445,8.8491,-3.2012,0.012000
0.2040,-0.8152,0.5772,7.3857,7.2485,-4.1235,0.012000
0.1840,-0.8278,0.5525,6.9817,4.3064,-4.8095,0.012000
0.1747,-0.8228,0.5664,3.8338,3.2012,-5.0991,0.012000
0.1913,-0.7986,0.5958,3.0335,3.5442,-4.2378,0.012000
0.2010,-0.8044,0.5869,5.0991,2.4924,-2.1646,0.012000
0.2099,-0.8132,0.5691,5.1524,2.0046,-1.1433,0.012000
0.2174,-0.8296,0.5382,3.8034,0.0915,-0.4802,0.012000
0.2191,-0.8258,0.5259,0.5793,-4.8704,-0.0762,0.012000
0.2161,-0.8067,0.5765,-2.2637,-10.6326,0.2744,0.012000
0.2057,-0.8029,0.5746,-4.3216,-15.6707,0.1677,0.012000
0.2015,-0.7961,0.5814,-4.5427,-15.5640,-0.2591,0.012000
0.2024,-0.8014,0.5896,-3.6814,-14.1921,-0.4116,0.012000
0.2109,-0.8088,0.5818,-2.0808,-11.1966,-0.1905,0.012000
0.2177,-0.7977,0.5642,-2.1341,-8.8720,-0.7774,0.012000
0.2145,-0.7878,0.5822,-2.0427,-9.9543,-0.3506,0.012000
0.2174,-0.7985,0.5729,-0.3887,-10.4116,-0.0686,0.012000
0.2157,-0.8079,0.5568,-0.0305,-10.4726,0.1296,0.012000
0.2166,-0.8066,0.5611,-1.6463,-10.4040,0.3354,0.012000
0.2186,-0.7970,0.5886,-1.8979,-9.9238,0.4802,0.012000
0.2155,-0.7930,0.6097,-0.7012,-10.2820,0.6860,0.012000
0.2164,-0.7952,0.6104,1.3186,-9.3140,0.4345,0.012000
0.2205,-0.8073,0.5958,3.9253,-7.0732,-0.3887,0.012000
0.2274,-0.8070,0.5698,5.5945,-4.2530,-0.5869,0.012000
0.2262,-0.7796,0.5535,5.2973,-3.9939,-1.3034,0.012000
0.2303,-0.7993,0.5809,6.6082,-5.6021,-0.6250,0.012000
0.2373,-0.8041,0.6004,9.0396,-3.6966,-0.8079,0.012000
0.2212,-0.7883,0.6019,10.9070,1.7302,-2.3628,0.012000
0.2213,-0.7849,0.5955,13.6204,6.0823,-2.9421,0.012000
0.2253,-0.7809,0.5917,20.8079,10.2134,-3.2698,0.012000
0.2282,-0.7951,0.5676,22.6524,10.3125,-4.1235,0.012000
0.2159,-0.7875,0.5555,22.5838,7.1494,-4.7104,0.012000
0.2155,-0.7985,0.5577,20.6479,2.2866,-4.8095,0.012000
0.2479,-0.7960,0.5865,18.6662,-0.8918,-4.9466,0.012000
0.2731,-0.7856,0.6057,16.1357,0.3354,-7.9345,0.012000
0.2806,-0.7664,0.6418,17.3323,0.5335,-11.1204,0.012000
0.2626,-0.7602,0.6691,22.7744,0.7393,-14.2607,0.012000
0.2273,-0.7701,0.6794,31.3872,4.1463,-16.1662,0.012000
0.1805,-0.7679,0.6755,46.8979,18.7348,-15.9680,0.012000
0.1739,-0.7520,0.6922,51.0747,26.7073,-14.0091,0.012000
0.1840,-0.7410,0.7057,56.2195,33.9787,-11.6463,0.012000
0.2006,-0.7439,0.7017,61.9893,38.3613,-9.3216,0.012000
0.2184,-0.7444,0.7068,67.1494,40.5412,-7.2713,0.012000
0.2177,-0.7486,0.7090,75.4878,40.1601,-6.0518,0.012000
0.2198,-0.7344,0.6978,76.8598,38.4909,-6.9741,0.012000
0.2170,-0.7031,0.6914,76.3034,35.7088,-8.3003,0.012000
0.2029,-0.6818,0.7081,74.6875,33.2241,-9.1997,0.012000
0.1846,-0.6793,0.7264,74.0168,34.2988,-9.2683,0.012000
0.1599,-0.6793,0.7316,77.0274,45.4040,-7.8887,0.012000
0.1623,-0.6625,0.7329,75.9299,48.7119,-5.8537,0.012000
0.1700,-0.6492,0.7323,73.8796,48.0335,-3.9787,0.012000
0.1897,-0.6348,0.7582,71.0290,44.7027,-3.6509,0.012000
0.1936,-0.6287,0.7942,69.2149,44.0777,-5.4954,0.012000
0.1931,-0.6162,0.8124,71.0213,49.4055,-9.5579,0.012000
0.1846,-0.6123,0.7952,72.5229,51.9436,-10.9223,0.012000
0.1516,-0.5985,0.7640,72.7820,52.2485,-11.5777,0.012000
0.1229,-0.5863,0.7583,70.3887,50.7546,-11.2424,0.012000
0.1202,-0.5737,0.7846,65.4649,50.4497,-9.8476,0.012000
0.1404,-0.5566,0.8037,53.4223,51.3338,-6.8521,0.012000
0.1528,-0.5515,0.8228,50.2744,51.2424,-7.7973,0.012000
0.1402,-0.5492,0.8278,48.8034,50.7851,-9.6570,0.012000
0.1252,-0.5444,0.8208,47.2332,49.4970,-10.5793,0.012000
0.1115,-0.5290,0.8328,41.2957,42.4924,-8.4223,0.012000
0.1004,-0.5125,0.8549,37.6448,40.6555,-7.0732,0.012000
0.0830,-0.4996,0.8922,35.5259,43.0412,-6.1585,0.012000
0.0696,-0.5008,0.9228,36.9893,51.0213,-5.7317,0.012000
0.0672,-0.4952,0.9288,41.2119,61.1585,-5.9604,0.012000
0.0703,-0.4858,0.9230,49.8018,72.9726,-7.1951,0.012000
0.0610,-0.4792,0.9104,52.4314,73.8034,-7.4771,0.012000
0.0529,-0.4744,0.9020,53.0488,73.6662,-7.2104,0.012000
0.0277,-0.4687,0.8826,52.1341,74.3521,-7.2027,0.012000
0.0131,-0.4643,0.8781,49.4817,74.2531,-7.0732,0.012000
-0.0212,-0.4313,0.8942,42.8887,70.6250,-6.0137,0.012000
-0.0309,-0.4241,0.8995,40.9756,69.1616,-4.8552,0.012000
-0.0349,-0.4151,0.8919,40.3735,68.9253,-3.6738,0.012000
-0.0492,-0.4172,0.8822,39.6723,70.5793,-2.7363,0.012000
-0.0713,-0.4122,0.8870,38.4909,73.8491,-1.9512,0.012000
-0.0647,-0.3947,0.9128,37.6677,83.5823,-0.4192,0.012000
-0.0574,-0.3855,0.9129,37.6829,85.1982,-0.1067,0.012000
-0.0542,-0.3782,0.8954,38.9710,83.3537,-0.5869,0.012000
-0.0738,-0.3729,0.8765,39.9085,78.7500,-1.0366,0.012000
-0.1501,-0.3647,0.8837,39.4665,75.4344,-0.6936,0.012000
-0.1702,-0.3609,0.8834,34.7561,79.1235,3.3613,0.012000
-0.1755,-0.3538,0.8935,33.4223,83.3384,4.6799,0.012000
-0.1727,-0.3626,0.8989,32.9573,88.5899,4.9619,0.012000
-0.1811,-0.3567,0.9041,33.6280,92.4695,4.3674,0.012000
-0.2165,-0.3417,0.8978,34.0244,90.5412,3.4527,0.012000
-0.2374,-0.3339,0.9110,32.4924,84.4741,3.7805,0.012000
-0.2689,-0.3185,0.9281,30.1296,78.2698,4.4588,0.012000
-0.2721,-0.3183,0.9824,29.9543,77.1341,5.0991,0.012000
-0.2919,-0.3263,0.9911,34.7637,84.1692,4.9162,0.012000
-0.3121,-0.3124,0.9514,48.3841,100.8918,3.2774,0.012000
-0.3387,-0.2978,0.9070,52.1570,103.3308,2.6372,0.012000
-0.3698,-0.2834,0.8924,52.3323,101.6616,2.8201,0.012000
-0.3843,-0.2775,0.9083,49.1540,100.4573,4.0930,0.012000
-0.3943,-0.2749,0.9186,46.8674,102.8659,5.7927,0.012000
-0.4258,-0.2498,0.8754,48.6509,105.8308,7.4695,0.012000
-0.4315,-0.2391,0.8788,50.2058,105.2439,7.8506,0.012000
-0.4481,-0.2382,0.8711,51.5854,105.5640,7.7820,0.012000
-0.4592,-0.2272,0.8542,51.8826,105.4344,8.1174,0.012000
-0.4487,-0.2221,0.8464,51.4634,103.9939,8.5442,0.012000
-0.4926,-0.1802,0.8369,49.1845,102.2790,7.4848,0.012000
-0.5198,-0.1722,0.8566,49.6189,103.7805,7.5457,0.012000
-0.5438,-0.1862,0.8385,52.0808,108.9558,7.5534,0.012000
-0.5580,-0.1761,0.7994,53.7271,112.8049,7.6905,0.012000
-0.5649,-0.1611,0.7708,53.2470,112.0198,7.9802,0.012000
-0.5945,-0.1409,0.7964,45.5793,103.8719,9.2378,0.012000
-0.6177,-0.1340,0.8179,45.5259,105.9756,9.8552,0.012000
-0.6522,-0.1212,0.8083,48.7043,112.2713,10.5793,0.012000
-0.6652,-0.1243,0.7901,54.2226,119.0396,11.2805,0.012000
-0.6541,-0.1212,0.7097,59.8780,126.6768,12.1799,0.012000
-0.6545,-0.1102,0.6943,58.1860,125.6479,12.2409,0.012000
-0.6721,-0.1010,0.6960,56.4024,126.3719,11.9512,0.012000
-0.6855,-0.1014,0.6955,56.4558,130.9756,10.6784,0.012000
-0.7047,-0.0868,0.6674,57.2866,134.6418,8.6509,0.012000
-0.7571,-0.0546,0.6420,56.7683,127.9192,7.2485,0.012000
-0.7676,-0.0500,0.6281,56.6159,124.5656,8.5137,0.012000
-0.7653,-0.0588,0.6205,56.5777,125.3811,9.3826,0.012000
-0.7720,-0.0490,0.5886,56.6692,127.3018,9.2759,0.012000
-0.7708,-0.0400,0.5649,56.6235,127.2485,8.8262,0.012000
-0.7906,-0.0202,0.5073,55.8613,123.1402,6.1433,0.012000
-0.8016,-0.0098,0.5088,53.6052,120.4116,4.8704,0.012000
-0.8217,-0.0217,0.5031,52.3780,119.8628,3.4756,0.012000
-0.8490,-0.0135,0.4846,52.6601,119.2683,3.0945,0.012000
-0.8684,-0.0027,0.4685,52.9040,116.9512,4.0396,0.012000
-0.8627,-0.0046,0.4240,53.5137,114.2073,5.4878,0.012000
-0.8448,0.0032,0.3961,53.1707,111.2881,5.2744,0.012000
-0.8405,-0.0054,0.3745,51.6006,106.3872,3.7576,0.012000
-0.8441,0.0039,0.3629,49.9543,101.5244,2.9268,0.012000
-0.8480,-0.0005,0.3515,48.7500,99.1387,1.5091,0.012000
-0.8568,-0.0003,0.3102,45.8689,93.7424,-3.5290,0.012000
-0.8852,0.0189,0.2936,44.9390,87.3552,-4.7485,0.012000
-0.8977,0.0211,0.2914,44.3979,82.0274,-5.0000,0.012000
-0.9153,0.0220,0.2845,43.7805,79.7180,-4.9009,0.012000
-0.9169,0.0085,0.2634,41.4177,83.5899,-4.5503,0.012000
-0.9117,0.0107,0.2274,39.1311,84.1921,-6.0823,0.012000
-0.9142,0.0160,0.2016,35.1829,78.3384,-7.7515,0.012000
-0.9376,0.0349,0.2016,30.7546,69.2378,-8.6814,0.012000
-0.9345,0.0168,0.2527,28.4909,65.4344,-9.3064,0.012000
-0.9445,0.0097,0.1981,32.4238,73.4832,-12.7668,0.012000
-0.9512,0.0119,0.1568,33.4375,71.9284,-13.6738,0.012000
-0.9434,0.0115,0.1387,32.8049,67.1646,-14.1387,0.012000
-0.9493,0.0062,0.1115,29.4131,61.3643,-15.2668,0.012000
-0.9674,0.0157,0.0817,24.3902,54.3598,-15.5107,0.012000
-0.9631,-0.0101,0.0593,13.0488,38.5899,-15.1905,0.012000
-0.9545,-0.0046,0.0580,8.1555,30.5335,-17.1113,0.012000
-0.9625,-0.0024,0.0614,4.4817,24.6418,-19.5732,0.012000
-0.9835,-0.0122,0.0771,2.0579,25.1524,-22.0351,0.012000
-1.0072,-0.0107,0.0978,2.2637,31.5091,-23.2927,0.012000
-1.0253,-0.0048,0.0993,9.2683,47.1037,-18.5595,0.012000
-1.0159,-0.0060,0.0598,13.1174,48.8643,-15.0838,0.012000
-0.9948,-0.0079,0.0327,15.1753,43.3613,-12.6448,0.012000
-0.9722,-0.0197,0.0222,15.2058,34.5198,-12.3476,0.012000
-0.9716,-0.0193,0.0040,13.7576,27.3552,-14.2835,0.012000
-1.0167,-0.0167,-0.0052,10.2363,20.3963,-15.9832,0.012000
-1.0247,-0.0246,0.0023,9.4970,22.9116,-15.0229,0.012000
-1.0265,-0.0348,-0.0101,9.2073,28.6433,-13.1174,0.012000
-1.0212,-0.0251,-0.0316,8.2774,33.4756,-11.1890,0.012000
-0.9955,-0.0294,-0.0519,6.7530,34.2378,-9.9924,0.012000
-0.9928,-0.0226,-0.0515,1.7454,22.7210,-7.1951,0.012000
-1.0002,-0.0180,-0.0473,-0.3506,14.8628,-5.8994,0.012000
-1.0128,-0.0106,-0.0280,-1.4634,9.2530,-3.7119,0.012000
-1.0114,-0.0171,-0.0132,0.2744,8.7195,-0.9451,0.012000
-0.9884,-0.0364,-0.0474,4.9848,15.6707,-0.2668,0.012000
-1.0022,-0.0270,-0.0632,5.4268,15.1296,-0.1601,0.012000
-1.0035,-0.0181,-0.0660,4.3369,11.8521,1.1890,0.012000
-0.9926,-0.0006,-0.0754,2.3095,8.0640,2.0732,0.012000
-0.9534,0.0560,-0.0887,-0.5488,2.8125,0.1905,0.012000
-0.9865,-0.0712,-0.0288,-5.1067,-6.0899,-9.2226,0.012000
-0.9922,-0.0503,-0.0245,-3.5899,-6.4482,-7.6677,0.012000
-0.9833,0.0019,-0.0415,-2.9345,-7.5686,-5.9299,0.012000
-0.9918,0.0059,-0.0385,-4.8780,-11.8674,-5.8308,0.012000
-0.9988,-0.0155,-0.0212,-7.1113,-14.9314,-5.8003,0.012000
-0.9982,-0.0574,-0.0018,-6.6311,-8.1707,-1.8064,0.012000
-0.9818,-0.0346,-0.0245,-6.4482,-3.3689,-0.6021,0.012000
-0.9731,-0.0341,-0.0425,-7.4314,-2.4771,-0.4878,0.012000
-0.9705,-0.0120,-0.0298,-10.0076,-6.5396,-2.0122,0.012000
-0.9768,-0.0201,-0.0118,-12.5381,-13.6128,-2.2256,0.012000
-0.9827,-0.0500,0.0320,-14.5274,-25.8155,-0.5945,0.012000
-0.9868,-0.0083,0.0257,-13.5823,-26.8293,0.3277,0.012000
-0.9999,-0.0176,0.0244,-13.2622,-25.0534,-0.4726,0.012000
-1.0009,-0.0596,0.0390,-13.1250,-19.5655,-0.5412,0.012000
-0.9944,-0.0405,0.0654,-11.2881,-11.7454,-0.4040,0.012000
-0.9858,-0.0258,0.0583,-6.8521,-6.8750,1.0671,0.012000
-0.9698,-0.0110,0.0508,-4.5274,-11.1814,1.4558,0.012000
-0.9647,-0.0123,0.0430,-3.5823,-18.3994,0.3659,0.012000
-0.9822,-0.0597,0.0553,-4.1616,-26.0671,-0.6250,0.012000
-1.0165,-0.0103,0.0814,-4.1463,-34.8171,2.6220,0.012000
-1.0297,-0.0145,0.0937,-4.0930,-36.8521,3.5213,0.012000
-1.0345,-0.0301,0.1099,-3.3537,-37.3399,5.5793,0.012000
-1.0371,-0.0330,0.1136,-1.6311,-35.4954,8.4070,0.012000
-1.0249,-0.0222,0.1049,-0.6402,-34.2530,10.8003,0.012000
-0.9908,-0.0186,0.0930,-3.3308,-44.0701,13.7729,0.012000
-0.9703,-0.0093,0.0908,-5.9909,-54.5427,13.1402,0.012000
-0.9690,-0.0012,0.0942,-9.6951,-66.6616,11.5320,0.012000
-0.9830,0.0035,0.1059,-14.8323,-78.6509,10.7393,0.012000
-0.9954,0.0024,0.1230,-20.7165,-88.0412,10.2744,0.012000
-0.9766,-0.0135,0.2011,-27.6220,-94.8933,9.6494,0.012000
-0.9678,-0.0272,0.2339,-24.0777,-89.1997,9.0168,0.012000
-0.9669,-0.0242,0.2635,-19.0701,-80.5335,8.9177,0.012000
-0.9634,-0.0190,0.2815,-11.9436,-72.1570,8.9710,0.012000
-0.9609,-0.0282,0.2787,-5.8613,-64.8704,8.8262,0.012000
-0.9496,-0.0240,0.2715,1.3415,-56.4253,6.1662,0.012000
-0.9642,-0.0119,0.2665,2.5152,-56.1662,4.6646,0.012000
-0.9731,-0.0083,0.2791,3.7043,-55.9985,3.9558,0.012000
-0.9744,-0.0054,0.2867,5.2973,-54.9848,4.2530,0.012000
-0.9728,-0.0030,0.2859,5.7012,-53.4299,5.1448,0.012000
-0.9633,-0.0122,0.2828,3.4832,-45.6555,5.7012,0.012000
-0.9454,-0.0031,0.2807,1.8521,-43.0335,5.4040,0.012000
-0.9337,0.0077,0.2839,0.4573,-44.0168,5.2515,0.012000
-0.9283,0.0101,0.2954,-0.6860,-49.4893,5.3125,0.012000
-0.9269,0.0191,0.3379,-3.1555,-67.3323,6.9588,0.012000
-0.9185,0.0127,0.3725,-1.3338,-69.8323,7.3399,0.012000
-0.9094,0.0121,0.3734,1.8064,-66.3491,7.4771,0.012000
-0.9006,0.0099,0.3651,4.0625,-62.1037,7.4771,0.012000
-0.8814,0.0050,0.3550,5.7622,-60.3354,6.6997,0.012000
-0.8604,0.0215,0.3238,2.1037,-71.7759,3.3384,0.012000
-0.8856,0.0432,0.3568,-4.5655,-84.9162,2.8125,0.012000
-0.8888,0.0236,0.4322,-9.9619,-91.7378,2.9116,0.012000
-0.8650,0.0152,0.4727,-11.9970,-90.9604,3.3765,0.012000
-0.8342,0.0074,0.4787,-10.0229,-88.3841,3.2317,0.012000
-0.8464,0.0344,0.4477,-6.0595,-92.1494,1.0213,0.012000
-0.8457,0.0202,0.4775,-7.1723,-92.6296,0.8765,0.012000
-0.8428,0.0095,0.5145,-9.2835,-88.7043,0.7622,0.012000
-0.8427,0.0135,0.5302,-10.2287,-85.7241,0.8994,0.012000
-0.8221,0.0151,0.5442,-9.7866,-87.0884,1.1585,0.012000
-0.8282,0.0175,0.5469,-8.0030,-93.9253,0.7927,0.012000
-0.8273,0.0085,0.5750,-8.9787,-92.3781,1.2652,0.012000
-0.8190,0.0077,0.5999,-9.4207,-86.1890,1.8902,0.012000
-0.8063,0.0080,0.6108,-8.9253,-80.5488,2.7515,0.012000
-0.7931,0.0151,0.6148,-7.5686,-78.5290,3.6280,0.012000
-0.7842,0.0253,0.6478,-6.5244,-80.7241,6.8521,0.012000
-0.7532,0.0135,0.6752,-6.4863,-78.2469,8.1631,0.012000
-0.7291,0.0078,0.6813,-5.2668,-74.4588,8.5442,0.012000
-0.7143,0.0117,0.6933,-2.6905,-74.1844,8.3384,0.012000
-0.7496,0.0319,0.7164,2.0579,-81.9360,9.3521,0.012000
-0.7377,0.0234,0.7598,5.5640,-76.0137,11.5549,0.012000
-0.7029,0.0158,0.7276,10.8689,-64.7866,13.4985,0.012000
-0.6677,0.0079,0.6883,13.8491,-59.9848,14.2226,0.012000
-0.6373,0.0140,0.6835,12.7515,-63.7195,13.3918,0.012000
-0.6300,0.0383,0.6900,2.8430,-90.4802,12.7973,0.012000
-0.6436,0.0327,0.7354,-1.2119,-103.1098,13.3460,0.012000
-0.6424,0.0201,0.7679,-3.3994,-106.3110,14.1387,0.012000
-0.6166,0.0162,0.7738,-3.4756,-102.2409,14.5198,0.012000
-0.5863,0.0131,0.7611,-3.6433,-97.7210,14.0015,0.012000
-0.5411,0.0299,0.7314,-9.2607,-102.4848,11.6921,0.012000
-0.5123,0.0269,0.7584,-14.9771,-113.1707,10.9832,0.012000
-0.5056,0.0360,0.7757,-20.0152,-125.9756,10.5107,0.012000
-0.5029,0.0439,0.7851,-23.9024,-139.4817,11.7149,0.012000
-0.4882,0.0203,0.8197,-26.1814,-147.3247,12.8963,0.012000
-0.4474,0.0214,0.8434,-30.1905,-140.8765,12.6448,0.012000
-0.4249,0.0180,0.8567,-30.6250,-133.9177,10.9223,0.012000
-0.4365,0.0904,0.8494,-28.1098,-130.9146,4.6265,0.012000
-0.3546,-0.0784,0.8945,-22.4695,-132.5838,1.8902,0.012000
-0.3109,-0.0452,0.9258,-23.6966,-132.8506,7.9345,0.012000
-0.3154,0.0025,0.9099,-30.3887,-133.8567,8.5899,0.012000
-0.2975,-0.0113,0.9210,-28.0259,-139.9771,8.8186,0.012000
-0.2740,-0.0155,0.9238,-26.8140,-140.6707,11.0442,0.012000
-0.2537,-0.0328,0.9348,-23.8338,-137.3857,11.3110,0.012000
-0.1845,-0.0404,0.9366,-24.1616,-133.6204,13.1250,0.012000
-0.1624,-0.0388,0.9310,-27.4162,-137.8887,14.4131,0.012000
-0.1246,-0.0491,0.9304,-31.9055,-145.2820,15.9146,0.012000
-0.0912,-0.0549,0.9216,-37.4314,-155.7469,18.3003,0.012000
-0.0505,-0.0677,0.9288,-41.7530,-169.2302,20.9527,0.012000
-0.0039,-0.0673,0.9341,-46.8140,-195.3430,24.7180,0.012000
0.0083,-0.0822,0.9350,-48.3613,-205.2668,26.2805,0.012000
0.0349,-0.1000,0.9586,-48.9863,-209.0320,28.2012,0.012000
0.0509,-0.0963,0.9697,-49.6875,-205.7241,30.4116,0.012000
0.0883,-0.0980,0.9811,-50.5412,-199.0625,32.4314,0.012000
0.2064,-0.1296,0.9600,-47.5457,-189.7637,33.9939,0.012000
0.2641,-0.1411,0.9410,-44.3826,-192.2637,33.1174,0.012000
0.3080,-0.1558,0.9161,-41.9207,-200.1143,32.0808,0.012000
0.3189,-0.1702,0.8934,-40.4726,-211.4939,32.1037,0.012000
0.3149,-0.1729,0.8751,-40.2744,-223.1555,34.0015,0.012000
0.3221,-0.1841,0.8600,-45.0457,-239.7790,44.1159,0.012000
0.3524,-0.1947,0.8663,-46.4634,-243.5213,50.9070,0.012000
0.4114,-0.2034,0.8806,-43.9329,-241.4787,55.7241,0.012000
0.4823,-0.2160,0.8821,-37.7515,-233.4832,57.3018,0.012000
0.5390,-0.2235,0.8612,-29.8628,-223.2165,56.0442,0.012000
0.5947,-0.2213,0.8543,-22.2104,-194.8094,49.9619,0.012000
0.6055,-0.2200,0.8472,-25.8003,-174.5656,47.0046,0.012000
0.6300,-0.2282,0.8312,-26.8140,-156.7378,44.2759,0.012000
0.6671,-0.2374,0.8436,-23.6738,-140.5259,40.5412,0.012000
0.7341,-0.2429,0.8596,-15.9223,-123.3384,34.4512,0.012000
0.7504,-0.2592,0.8137,1.3796,-86.9817,18.6433,0.012000
0.7421,-0.2877,0.7266,5.5030,-73.9329,11.6235,0.012000
0.7194,-0.3023,0.6616,5.9909,-71.2424,8.7805,0.012000
0.7127,-0.3090,0.6373,3.5442,-75.4878,10.2439,0.012000
0.7773,-0.2852,0.6914,-1.9131,-85.5183,15.2363,0.012000
0.8365,-0.2769,0.6955,-1.2500,-85.5945,12.9954,0.012000
0.8392,-0.2902,0.6740,2.9040,-85.6860,8.9863,0.012000
0.8126,-0.3049,0.6600,7.5610,-83.8262,4.5960,0.012000
0.7791,-0.2974,0.6235,9.4893,-79.2149,1.5320,0.012000
0.7765,-0.2886,0.5682,8.4985,-75.7546,4.1463,0.012000
0.8228,-0.2999,0.5563,9.5351,-76.2500,6.0899,0.012000
0.8615,-0.2979,0.5893,10.2515,-77.8963,6.3186,0.012000
0.8583,-0.2803,0.6038,11.4177,-77.3857,3.9939,0.012000
0.8488,-0.2690,0.5970,13.2317,-75.2439,0.1296,0.012000
0.8490,-0.2665,0.5464,10.1372,-59.7637,-4.1692,0.012000
0.8478,-0.2864,0.5114,8.0945,-54.3979,-4.2607,0.012000
0.8664,-0.2914,0.5030,5.7470,-54.5579,-2.8887,0.012000
0.8774,-0.2862,0.5202,4.4588,-56.7454,-2.1570,0.012000
0.8705,-0.2963,0.5062,4.5579,-57.6982,-4.0701,0.012000
0.8367,-0.2783,0.5008,3.5747,-65.5869,-4.9848,0.012000
0.8267,-0.2671,0.4731,1.9665,-68.3537,-3.2088,0.012000
0.8447,-0.2757,0.4503,0.5564,-73.8034,-1.3110,0.012000
0.8862,-0.3038,0.4334,0.7470,-78.7348,-0.1524,0.012000
0.8702,-0.2961,0.4145,2.1646,-85.3277,-0.8994,0.012000
0.8423,-0.2811,0.4195,1.8521,-106.7835,4.0244,0.012000
0.8231,-0.2609,0.4451,2.8125,-112.9726,6.8598,0.012000
0.8221,-0.2391,0.4388,5.3277,-109.6875,7.2180,0.012000
0.8543,-0.2422,0.4230,9.8704,-100.7698,6.2957,0.012000
0.8908,-0.2891,0.2856,13.4604,-83.1326,4.5732,0.012000
0.9039,-0.3146,0.2682,11.6082,-84.1159,6.7607,0.012000
0.9144,-0.2924,0.2740,7.1265,-87.2104,10.5869,0.012000
0.8999,-0.2975,0.2292,1.4329,-91.4482,12.9421,0.012000
0.8779,-0.3030,0.2849,-2.5381,-99.0549,17.0884,0.012000
0.8640,-0.1919,0.3367,-13.1326,-84.2073,23.9787,0.012000
0.8814,-0.2249,0.3071,-16.0518,-68.1098,22.5076,0.012000
0.9148,-0.2659,0.2559,-16.6159,-52.4162,19.1463,0.012000
0.9458,-0.2977,0.2038,-16.9741,-41.1509,15.8308,0.012000
0.9308,-0.3148,0.1966,-19.1311,-36.8216,14.3140,0.012000
0.9059,-0.2834,0.2542,-23.3460,-32.8659,16.0976,0.012000
0.9565,-0.2778,0.2677,-21.5320,-29.8323,15.5412,0.012000
0.9944,-0.2946,0.2421,-17.5229,-28.1021,11.8445,0.012000
0.9926,-0.3060,0.2394,-11.7302,-28.9787,7.5000,0.012000
0.9586,-0.3179,0.2209,-7.4543,-28.2317,3.8796,0.012000
0.9165,-0.3351,0.1879,-7.1037,-31.4939,7.4848,0.012000
0.9357,-0.3267,0.2027,-8.9405,-31.0976,11.7302,0.012000
0.9589,-0.3109,0.2111,-9.9771,-28.0030,12.5229,0.012000
0.9728,-0.3099,0.2209,-9.1616,-24.0701,10.0762,0.012000
0.9772,-0.3147,0.2123,-7.1494,-19.2835,6.6159,0.012000
0.9692,-0.3061,0.2074,-5.3277,-10.7470,0.9451,0.012000
0.9559,-0.3116,0.1857,-4.3445,-8.7500,-0.3430,0.012000
0.9452,-0.3218,0.1754,-3.7957,-9.0473,0.6098,0.012000
0.9482,-0.3212,0.1649,-3.8796,-9.5122,3.0030,0.012000
0.9702,-0.3171,0.1788,-4.5351,-10.4497,5.9070,0.012000
0.9727,-0.3062,0.1860,-3.7576,-10.0000,5.5412,0.012000
0.9600,-0.3044,0.1902,-2.3628,-9.5884,5.1220,0.012000
0.9459,-0.3076,0.1866,-0.9375,-7.4085,4.2302,0.012000
0.9418,-0.3099,0.1725,0.3659,-3.7500,3.4832,0.012000
0.9647,-0.3562,0.1159,-0.3506,-3.9710,4.3598,0.012000
0.9708,-0.3420,0.1459,-1.6997,-9.7180,7.6448,0.012000
0.9616,-0.3069,0.1741,-2.4771,-11.1585,9.2835,0.012000
0.9548,-0.2993,0.1820,-1.4405,-8.3155,7.5610,0.012000
0.9536,-0.3229,0.1600,0.4573,-3.9253,4.0244,0.012000
0.9480,-0.3334,0.1491,1.3338,2.9573,1.3948,0.012000
0.9614,-0.3323,0.1394,0.4268,5.5945,0.7622,0.012000
0.9803,-0.3461,0.1298,0.3277,4.4207,0.1372,0.012000
0.9717,-0.3416,0.1470,0.6784,1.2195,-0.0229,0.012000
0.9484,-0.3162,0.1657,0.7012,1.0366,-0.7317,0.012000
0.9429,-0.3171,0.1638,2.1951,6.7530,-5.2515,0.012000
0.9318,-0.3220,0.1611,3.3155,9.2835,-7.1113,0.012000
0.9142,-0.3277,0.1385,4.1692,12.0198,-8.5899,0.012000
0.9037,-0.3554,0.1066,4.1768,11.8369,-8.2774,0.012000
0.9130,-0.3346,0.1451,3.5213,7.5457,-4.9238,0.012000
0.9170,-0.3053,0.1717,3.5061,4.4512,-1.1357,0.012000
0.9245,-0.3028,0.1750,4.0625,7.0122,-2.6448,0.012000
0.9202,-0.3172,0.1682,4.8399,9.4665,-4.4207,0.012000
0.9150,-0.3281,0.1573,5.2820,9.4131,-5.4802,0.012000
0.9250,-0.3215,0.1663,4.1082,6.0061,-3.0107,0.012000
0.9221,-0.3159,0.1704,4.1845,6.0213,-2.5991,0.012000
0.9186,-0.3142,0.1747,5.1220,7.3323,-3.7271,0.012000
0.9158,-0.3129,0.1785,5.5869,10.7012,-5.2058,0.012000
0.9152,-0.3119,0.1645,5.4802,15.7774,-6.6006,0.012000
0.9337,-0.3444,0.1552,4.6875,15.2591,-4.8171,0.012000
0.9446,-0.3318,0.1458,3.3841,12.6372,-2.6296,0.012000
0.9559,-0.3317,0.1610,2.3552,8.2088,-0.6479,0.012000
0.9464,-0.3262,0.1898,1.7454,7.0732,0.3735,0.012000
0.9329,-0.3062,0.2009,1.9284,9.6265,-1.0518,0.012000
0.9208,-0.3051,0.2131,3.9482,18.4604,-5.3430,0.012000
0.9277,-0.3049,0.2128,4.0701,24.5732,-6.8674,0.012000
0.9424,-0.3063,0.2163,4.2912,30.5183,-9.0777,0.012000
0.9400,-0.3080,0.2142,4.9543,35.5259,-11.6463,0.012000
0.9223,-0.3146,0.2191,6.5320,39.5351,-13.9710,0.012000
0.9036,-0.2969,0.2399,9.9314,51.3186,-19.1845,0.012000
0.9025,-0.2861,0.2529,10.4954,59.3064,-22.2790,0.012000
0.8969,-0.2772,0.2764,11.6692,70.2591,-26.4634,0.012000
0.9103,-0.2663,0.2979,13.9863,84.4055,-32.5762,0.012000
0.9350,-0.2653,0.3128,15.7241,100.1067,-40.4954,0.012000
0.9440,-0.2861,0.2374,19.0549,120.7774,-54.5274,0.012000
0.9464,-0.3141,0.2201,20.9985,120.4649,-56.8979,0.012000
0.9456,-0.2962,0.2524,19.5732,116.2119,-56.0518,0.012000
0.9458,-0.2571,0.3054,15.0305,112.3018,-54.1006,0.012000
0.9492,-0.2002,0.3954,4.8095,114.1997,-54.0854,0.012000
0.9238,-0.2080,0.4240,2.5838,118.1631,-56.7835,0.012000
0.8896,-0.2118,0.4423,2.7134,122.1570,-59.6875,0.012000
0.8724,-0.2047,0.4514,4.2302,125.6021,-61.8369,0.012000
0.8630,-0.2051,0.4568,7.2104,128.0335,-63.1250,0.012000
0.8607,-0.1669,0.4979,11.3491,133.0793,-63.9329,0.012000
0.8315,-0.1673,0.5121,11.5625,136.5473,-64.5732,0.012000
0.8235,-0.1634,0.5236,11.5091,138.6357,-64.7713,0.012000
0.8140,-0.1556,0.5294,11.6235,138.7424,-64.7256,0.012000
0.7950,-0.1419,0.5499,11.4863,137.1494,-63.5366,0.012000
0.7836,-0.1168,0.6182,12.9878,135.5564,-63.2851,0.012000
0.7601,-0.1048,0.6298,12.5991,134.1463,-63.1402,0.012000
0.7382,-0.0970,0.6368,10.9451,131.8979,-61.7835,0.012000
0.6941,-0.0859,0.6486,8.4756,131.3643,-59.7332,0.012000
0.6855,-0.0594,0.6914,6.4558,135.9299,-58.6357,0.012000
0.7228,-0.0268,0.7949,10.1067,169.3979,-74.9009,0.012000
0.7233,-0.0055,0.8035,10.9451,183.7271,-85.7698,0.012000
0.7026,0.0140,0.8245,8.4070,191.6997,-95.7469,0.012000
0.5681,-0.0804,0.7972,8.4680,192.7363,-92.7820,0.012000
0.5313,-0.0318,0.7649,19.7942,184.0320,-80.7241,0.012000
0.5420,0.0022,0.8172,18.1860,181.8216,-78.5366,0.012000
0.5482,0.0251,0.8735,15.3887,182.4466,-79.4817,0.012000
0.5112,0.0460,0.9209,15.3811,179.4512,-79.8933,0.012000
0.4738,0.0737,0.9559,16.5015,175.8841,-78.8186,0.012000
0.3856,0.0544,0.9286,21.1662,179.1768,-79.6723,0.012000
0.3742,0.0560,0.9100,24.1921,192.6067,-82.0884,0.012000
0.3466,0.0493,0.8894,21.7912,195.5488,-80.9527,0.012000
0.2869,0.0455,0.8650,17.4314,192.8354,-77.2256,0.012000
0.2417,0.0396,0.8533,13.7348,184.9466,-72.1418,0.012000
0.1960,0.0543,0.8872,8.6204,163.4527,-59.6875,0.012000
0.1984,0.0740,0.9253,8.5518,156.6997,-55.7622,0.012000
0.1647,0.0916,0.9431,7.4238,151.3262,-53.9024,0.012000
0.1276,0.0862,0.9591,5.0229,146.0290,-53.6890,0.012000
0.0821,0.0959,0.9660,4.2988,140.7393,-55.0838,0.012000
0.0423,0.0880,0.9582,5.3430,135.5183,-53.6357,0.012000
0.0178,0.0826,0.9434,4.3750,135.2134,-53.4451,0.012000
0.0009,0.0885,0.9442,1.2424,130.3963,-52.0274,0.012000
-0.0209,0.0922,0.9556,-2.0503,119.5808,-48.8643,0.012000
-0.0545,0.1007,0.9619,-6.2119,104.0854,-42.7287,0.012000
-0.1158,0.1110,0.9821,-11.4787,74.9543,-31.2119,0.012000
-0.1280,0.1194,0.9919,-13.0945,65.3811,-26.0671,0.012000
-0.1232,0.1056,0.9930,-14.2835,59.0396,-21.7835,0.012000
-0.1097,0.0970,0.9799,-15.9832,53.2317,-18.8034,0.012000
-0.1029,0.0950,0.9705,-19.5732,46.3338,-16.8140,0.012000
-0.1192,0.0922,0.9734,-26.9588,30.9604,-14.6951,0.012000
-0.1213,0.0681,0.9778,-27.5534,24.5122,-13.9329,0.012000
-0.1333,0.0551,0.9644,-27.7134,17.3171,-10.0305,0.012000
-0.1284,0.0710,0.9626,-29.1387,7.7058,-4.0015,0.012000
-0.1066,0.0496,0.9841,-30.6936,-1.1585,-0.1296,0.012000
-0.0923,0.0623,1.0026,-34.1921,-11.7607,4.2149,0.012000
-0.1049,0.0486,0.9991,-35.2744,-13.7500,3.8720,0.012000
-0.1064,0.0408,0.9868,-36.5091,-16.2043,5.0457,0.012000
-0.1037,0.0341,1.0043,-32.8582,-17.8506,3.0107,0.012000
-0.1256,0.0428,1.0061,-17.7058,-21.0366,5.3277,0.012000
-0.1190,0.0416,1.0140,-17.0808,-20.3201,7.2866,0.012000
-0.1047,0.0520,1.0147,-19.3521,-17.3704,7.5457,0.012000
-0.1055,0.0486,1.0115,-20.9223,-13.8110,6.0823,0.012000
-0.1080,0.0289,1.0079,-20.6631,-13.7271,5.0686,0.012000
-0.1136,0.0865,1.0675,-26.0290,-28.9634,7.1723,0.012000
-0.0786,0.0718,1.1287,-52.0122,-43.5899,7.9192,0.012000
-0.0773,-0.0143,1.1060,-51.7835,-50.1143,10.0229,0.012000
-0.1241,0.0499,1.0576,-36.1662,-56.2348,16.6540,0.012000
-0.1413,0.0157,1.0290,-27.4314,-58.5518,26.6692,0.012000
0.0093,0.0118,1.0515,-23.5213,-55.5259,24.4970,0.012000
0.0065,0.0175,1.0549,-21.0671,-51.0976,23.6433,0.012000
-0.0511,0.0091,1.0329,-16.0366,-46.0899,21.3262,0.012000
-0.0773,0.0110,1.0090,-12.6372,-41.0137,16.6082,0.012000
-0.0737,0.0052,0.9811,-10.3506,-37.6143,10.9146,0.012000
-0.0419,-0.0326,0.9495,-11.3415,-44.1845,11.9360,0.012000
-0.0223,-0.0031,1.0011,-12.4543,-48.8643,17.5838,0.012000
-0.0007,0.0189,1.0480,-12.4009,-48.6966,21.6082,0.012000
-0.0184,-0.0169,1.0377,-3.1098,-39.0168,20.1143,0.012000
0.0176,-0.0255,1.0378,10.8689,-25.8384,15.6250,0.012000
0.0513,-0.0452,1.0239,31.3720,-11.9970,7.3399,0.012000
0.0557,-0.0395,1.0229,37.9421,-10.9451,6.9512,0.012000
0.0546,-0.0219,1.0312,38.4756,-13.2927,7.9649,0.012000
0.0231,-0.0056,1.0338,36.3338,-12.3780,8.0640,0.012000
0.0483,-0.0021,1.0786,61.5777,7.2485,2.5534,0.012000
0.0682,0.0153,1.0889,63.1326,15.1982,0.3049,0.012000
0.0936,-0.0123,1.0759,66.2805,23.4832,-5.2439,0.012000
0.0864,-0.0218,1.0350,71.2500,29.9848,-11.4558,0.012000
0.0423,-0.0024,0.9962,79.0091,32.3399,-15.8689,0.012000
-0.0103,0.0958,1.0432,81.0518,25.2058,-13.6585,0.012000
-0.0057,0.0997,1.0331,75.4497,24.1540,-9.9085,0.012000
0.0303,0.1101,0.9588,38.4527,7.0122,0.1524,0.012000
0.0391,0.0876,1.0739,-1.3110,-3.9863,7.1570,0.012000
-0.0057,0.0398,1.0096,6.6921,-0.6860,5.2820,0.012000
-0.0183,0.0427,0.9950,-0.2744,5.3887,3.5976,0.012000
-0.0063,0.0308,1.0208,-1.6311,5.2439,0.3430,0.012000
0.0010,0.0013,1.0212,-1.4405,5.2896,0.5183,0.012000
0.0093,0.0009,1.0123,2.1418,4.3826,4.2073,0.012000
0.0352,0.0473,1.0493,7.1265,0.5945,8.8491,0.012000
0.0272,0.0829,1.0782,15.9375,-1.2195,8.2927,0.012000
-0.0009,0.0978,1.0592,20.1677,0.5869,6.0518,0.012000
0.0024,0.1172,1.0152,20.8765,3.8720,3.2470,0.012000
0.0249,0.1147,0.9614,19.0854,8.0183,1.8521,0.012000
0.0443,0.0994,0.8939,14.4817,9.4512,2.4619,0.012000
0.0653,0.1093,0.9092,3.3003,1.1738,7.6220,0.012000
0.0811,0.1235,0.9290,-1.3491,-3.6662,8.9710,0.012000
0.0685,0.1414,0.9299,-7.3018,-6.5015,8.1174,0.012000
0.0492,0.1422,0.9040,-13.7195,-6.2119,5.2058,0.012000
0.0451,0.0925,0.8755,-21.4405,-6.3796,5.9299,0.012000
0.0650,0.1097,0.9171,-21.5549,-12.9726,11.6845,0.012000
0.1133,0.1755,1.0120,-15.8613,-17.7591,14.9771,0.012000
0.1044,0.2144,1.0742,-15.7774,-14.1006,14.3445,0.012000
0.0947,0.2403,1.1650,-27.8049,-6.7302,11.0518,0.012000
0.0377,0.1023,0.9755,-41.2195,15.4116,-4.7256,0.012000
0.0388,0.0569,0.9286,-36.3110,12.5991,-4.5884,0.012000
0.0165,0.0532,0.9622,-17.2027,10.9985,-2.4085,0.012000
0.0035,0.1190,1.0443,6.6692,11.8369,-0.1829,0.012000
-0.0380,0.1474,0.9909,26.6311,15.9223,1.1966,0.012000
0.0529,0.1365,0.9085,-9.1387,-7.1418,3.5518,0.012000
0.0576,0.0601,0.8893,-8.4680,-11.0899,6.6540,0.012000
0.0082,0.0688,0.9213,-14.8095,-11.6997,15.8841,0.012000
-0.0378,0.0966,0.9567,-22.8659,-10.4040,20.1829,0.012000
-0.0157,0.1145,1.0072,-27.4924,-7.2180,20.7698,0.012000
0.0257,0.0309,1.0519,-25.2973,-6.9817,20.0915,0.012000
0.0109,0.0919,1.1205,-16.8521,-18.9024,20.4954,0.012000
0.0184,0.1116,1.0693,-15.7851,-12.4466,18.3918,0.012000
0.0332,0.0722,0.9998,-8.9253,-5.1905,17.0884,0.012000
0.0410,0.0574,1.0106,-0.5107,-4.9390,21.1052,0.012000
0.0292,0.0966,1.0062,3.1250,0.0610,30.8689,0.012000
0.0325,0.0897,0.9841,-2.2485,1.7912,34.9238,0.012000
0.0031,0.0775,0.9765,-6.3415,2.5457,37.6296,0.012000
0.0298,0.0422,1.0207,-8.8872,2.5915,37.7973,0.012000
0.0484,0.0721,1.0051,-16.8140,6.5168,38.2927,0.012000
0.0775,0.0625,0.9830,-15.3201,6.7073,40.3582,0.012000
0.0577,-0.0291,0.9949,-12.7363,6.1357,41.4710,0.012000
-0.0347,-0.1921,0.8913,-39.6799,24.1006,18.4604,0.012000
-0.0110,-0.0210,1.1113,-75.5183,36.4024,-2.4619,0.012000
0.0386,0.0385,0.9735,1.9436,14.0625,-10.4497,0.012000
0.0670,0.0382,1.0110,-12.5838,17.9726,-9.3979,0.012000
0.0804,0.1035,0.9852,-24.1616,17.5229,-10.1601,0.012000
0.0549,0.0598,1.0010,-18.7729,11.1052,-11.4939,0.012000
0.0538,0.0071,0.9996,-19.5122,8.2470,-9.2149,0.012000
0.0638,0.0421,0.9506,-47.2180,11.3643,-17.8201,0.012000
0.0690,0.1160,1.0250,-64.3826,18.5747,-26.9665,0.012000
-0.0118,0.0223,1.1156,-69.1616,19.3216,-36.8826,0.012000
-0.0382,0.0187,0.9446,-33.0640,6.2043,-30.6250,0.012000
0.0165,0.0866,0.8799,13.6966,0.3277,-16.7607,0.012000
0.0717,-0.0096,0.9884,-0.5030,1.0976,-11.2576,0.012000
0.0582,-0.0082,0.9554,2.1494,0.9604,1.5244,0.012000
0.0283,-0.0164,1.0359,3.1021,-1.6997,-3.8491,0.012000
0.0251,-0.0237,1.0548,1.7683,0.6479,-19.6875,0.012000
0.0526,0.0128,0.9560,1.2271,1.2576,-30.4573,0.012000
-0.0129,-0.0349,0.9560,3.2393,-2.6524,-35.9756,0.012000
-0.0682,0.0080,0.9979,3.3613,-3.2546,-30.5183,0.012000
-0.0361,0.1165,1.0691,3.8262,-1.7835,-27.2866,0.012000
0.0676,0.1084,1.0532,1.6845,3.9329,-31.4634,0.012000
0.0199,-0.0380,0.9685,2.8582,0.1829,-19.1082,0.012000
0.0413,-0.0484,0.9603,4.5122,-2.0960,-11.8750,0.012000
-0.0465,-0.1111,1.0167,4.0091,-2.8735,-4.9848,0.012000
-0.1702,-0.1145,0.9984,3.9787,-1.0595,-4.6875,0.012000
-0.0742,-0.1157,1.0021,7.0503,-0.2591,-13.9482,0.012000
-0.0328,-0.0374,0.9898,16.9207,-5.3887,-20.0000,0.012000
0.0108,0.0333,1.0151,15.9223,-4.0625,-14.6723,0.012000
0.0037,-0.0400,1.0170,8.4909,-3.3765,-12.3704,0.012000
0.0906,0.0637,0.9666,10.6936,-5.9680,-5.3659,0.012000
0.0054,-0.0781,1.0096,13.8948,-4.6037,-5.3963,0.012000
0.0275,0.0376,1.0117,-0.2439,-3.0412,33.3918,0.012000
0.0059,0.0178,0.7680,-6.8445,0.0686,25.8384,0.012000
0.0525,-0.0599,1.0021,-2.6601,-2.5000,19.7027,0.012000
0.0162,-0.0583,1.0573,1.1814,-4.2759,13.1479,0.012000
-0.0637,-0.0081,1.0063,4.8095,-2.8582,9.3293,0.012000
0.0104,-0.0308,1.0179,0.4421,-3.4985,6.8521,0.012000
-0.0660,-0.0360,1.0084,2.1951,-7.0808,3.8720,0.012000
-0.0457,-0.0665,0.9500,-0.6402,-8.7348,2.7363,0.012000
0.0762,-0.0551,0.7807,-1.2805,-19.2454,8.9177,0.012000
-0.0115,-0.1398,0.5670,0.2515,-48.2927,18.2241,0.012000
-0.0081,-0.1561,0.8698,-17.7668,1.5854,39.6570,0.012000
0.0494,-0.1582,0.8769,27.7591,6.0595,45.2134,0.012000
0.1547,-0.1020,1.0023,-9.3598,-2.3780,50.9909,0.012000
0.1276,-0.0101,0.9957,6.3567,-0.1372,43.0412,0.012000
0.0155,-0.0767,0.9844,7.9878,0.5107,30.8537,0.012000
0.0283,-0.0070,1.0099,-1.5930,-0.2744,23.7271,0.012000
0.0383,-0.0075,1.0024,-0.3735,0.4497,12.5381,0.012000
0.0389,0.0117,1.0007,-0.4268,0.1448,8.3765,0.012000
0.0374,-0.0049,1.0009,-0.7393,0.1677,5.0991,0.012000
0.0390,-0.0121,1.0003,-0.0838,0.5488,0.6402,0.012000
0.0374,-0.0216,1.0027,0.2210,0.5412,-0.4497,0.012000
0.0380,-0.0216,1.0045,0.2058,0.3963,-0.3887,0.012000
0.0378,-0.0220,1.0027,0.2287,0.5030,-0.3963,0.012000
0.0375,-0.0213,1.0028,0.3049,0.5183,-0.4573,0.012000
0.0358,-0.0209,0.9998,0.2591,0.6250,-0.2439,0.012000
0.0353,-0.0204,1.0013,0.2058,0.4954,-0.2439,0.012000
0.0358,-0.0235,1.0029,0.2363,0.5640,-0.1448,0.012000
0.0354,-0.0229,1.0009,0.1296,0.5869,0.0534,0.012000
0.0363,-0.0209,1.0016,0.1601,0.5716,0.1601,0.012000
0.0376,-0.0237,1.0027,0.0381,0.5259,0.4649,0.012000
0.0383,-0.0241,1.0012,0.0838,0.5259,0.6860,0.012000
0.0354,-0.0204,1.0005,0.1067,0.4421,0.7012,0.012000
0.0354,-0.0183,1.0029,0.1372,0.4878,0.2820,0.012000
0.0366,-0.0204,1.0015,0.2515,0.6784,-0.2058,0.012000
0.0362,-0.0226,0.9990,0.1905,0.5259,-0.4878,0.012000
0.0349,-0.0226,1.0027,0.2210,0.5945,-0.5259,0.012000
0.0349,-0.0206,1.0022,0.3963,0.5945,-0.6098,0.012000
0.0379,-0.0221,1.0016,0.3125,0.5640,-0.5640,0.012000
0.0380,-0.0203,1.0012,0.1601,0.6250,-0.6098,0.012000
0.0368,-0.0222,1.0012,0.3201,0.5335,-0.6098,0.012000
0.0394,-0.0226,1.0019,0.2973,0.5640,-0.6250,0.012000
0.0391,-0.0228,1.0015,0.2439,0.5793,-0.5564,0.012000
0.0391,-0.0225,0.9996,0.3201,0.5030,-0.5640,0.012000
0.0364,-0.0200,1.0018,0.3277,0.6250,-0.4878,0.012000
0.0388,-0.0208,1.0026,0.4116,0.5640,-0.4802,0.012000
0.0385,-0.0219,0.9993,0.2591,0.5640,-0.5412,0.012000
0.0356,-0.0202,1.0020,0.1982,0.5945,-0.5030,0.012000
0.0383,-0.0213,0.9998,0.2744,0.5793,-0.4116,0.012000
0.0348,-0.0229,1.0025,0.2287,0.5793,-0.5335,0.012000
0.0366,-0.0247,0.9998,0.2591,0.5945,-0.5793,0.012000
0.0358,-0.0245,1.0007,0.3277,0.5945,-0.5869,0.012000
0.0378,-0.0211,0.9991,0.3735,0.4878,-0.5259,0.012000
0.0363,-0.0204,0.9989,0.2896,0.5335,-0.5488,0.012000
0.0345,-0.0215,1.0015,0.4268,0.5335,-0.5869,0.012000
0.0360,-0.0215,1.0024,0.3506,0.5869,-0.5640,0.012000
0.0336,-0.0203,1.0009,0.2668,0.5488,-0.5259,0.012000
0.0728,-0.1266,1.2466,3.7119,1.7149,-0.3277,0.012000
0.0010,-0.2511,0.9886,82.7210,39.7409,13.7576,0.012000
0.0428,0.1496,0.3516,66.0899,-13.1631,60.0762,0.012000
0.2012,0.1130,0.8629,-15.1524,4.3598,55.0229,0.012000
0.1243,0.0427,0.8352,-4.4817,2.3323,16.1280,0.012000
0.1177,-0.0051,0.9627,-54.5579,1.5777,6.8369,0.012000
-0.0070,0.0175,1.0112,-68.6890,12.7668,12.4085,0.012000
0.0398,0.0078,0.9507,6.3415,-5.0076,3.4299,0.012000
0.0555,-0.0018,1.0854,-9.8704,4.5274,2.5762,0.012000
0.0164,0.0375,0.9670,6.0137,3.0945,-6.9893,0.012000
0.0406,-0.0332,0.9973,0.0686,1.2500,-9.9238,0.012000
0.0392,0.0163,0.9968,-4.1082,1.4024,-1.5701,0.012000
0.0266,-0.0123,1.0126,-5.4726,1.7835,-2.6372,0.012000
0.0450,0.0369,1.0191,1.0213,0.7393,-3.6585,0.012000
0.0408,0.0500,1.0205,6.0899,1.2652,-22.3323,0.012000
0.0577,-0.0441,1.1219,28.3765,-4.9314,-29.7713,0.012000
-0.2135,0.2415,0.7062,25.7698,-0.3354,11.1357,0.012000
0.1216,0.0130,0.8014,-8.4680,3.2393,20.8689,0.012000
0.1408,0.0057,0.8028,-22.2180,1.1280,4.4817,0.012000
0.1046,0.1013,1.0148,-87.6829,8.5976,14.6494,0.012000
0.0685,-0.0045,0.9879,-82.1341,3.8720,4.9085,0.012000
0.1547,-0.2017,1.0471,-14.4817,-20.2287,-9.4207,0.012000
0.0637,-0.0332,0.9393,1.9055,18.5366,1.2500,0.012000
0.0253,-0.0072,1.0323,4.0625,21.0747,1.2195,0.012000
0.0124,-0.0065,0.9265,5.0838,13.9405,1.2500,0.012000
0.0657,-0.1220,1.1862,18.8491,9.5732,0.6707,0.012000
0.0635,0.0873,0.9448,-4.9771,-2.3476,3.1479,0.012000
0.0693,-0.0091,1.0503,-27.8735,4.2759,0.6707,0.012000
0.0182,-0.0152,1.0014,-6.8750,-2.1265,-4.0396,0.012000
0.0178,-0.0257,1.0062,-3.4680,-3.7348,-5.1220,0.012000
0.0336,-0.0262,1.0328,-1.4024,-0.2210,-1.3643,0.012000
0.0490,-0.0719,1.1144,6.6387,3.7195,-1.4405,0.012000
0.0076,-0.0134,0.9630,35.7317,0.5335,-5.4573,0.012000
0.0324,0.0630,0.8536,22.2713,-5.0152,-2.1265,0.012000
0.0590,0.0768,0.8280,-48.5290,3.6357,2.6982,0.012000
0.0549,-0.0909,1.1284,0.1296,-27.2942,-10.8308,0.012000
0.0493,-0.0628,1.0121,-3.2774,7.9345,-1.7530,0.012000
0.0259,-0.0303,1.0287,-0.5335,15.3887,2.5381,0.012000
-0.0007,-0.0098,0.9229,4.1387,15.5412,0.3049,0.012000
0.1891,-0.2259,1.2667,13.7271,9.3216,-0.1296,0.012000
-0.0673,0.2616,0.3232,104.9543,-20.6402,26.7378,0.012000
0.1688,0.1337,0.7781,-64.6113,7.4162,46.0899,0.012000
0.1885,-0.0038,1.2438,-80.0381,16.2729,28.3765,0.012000
-0.0255,-0.0294,0.9746,15.4040,-3.3155,5.3887,0.012000
0.0350,0.0256,0.9774,5.4649,-4.9085,-0.2134,0.012000
0.0192,0.0161,0.9728,-1.1966,3.4832,0.5945,0.012000
0.0365,-0.0078,1.0032,-0.6174,0.3049,-0.6555,0.012000
0.0177,0.0117,1.0407,2.2104,0.5869,0.3506,0.012000
-0.0217,0.1995,1.0337,15.1905,-1.6921,-10.9680,0.012000
-0.1967,0.1785,0.8285,14.6646,1.0518,-46.3796,0.012000
0.2083,-0.0912,1.0809,-60.7927,3.3918,-47.4848,0.012000
0.1164,-0.1038,1.0540,-16.6159,-13.2165,-43.0869,0.012000
0.1118,-0.1837,1.2732,1.9131,5.1220,-28.2774,0.012000
0.0023,-0.1395,1.0163,55.9756,16.7454,-25.2668,0.012000
-0.1443,-0.0099,0.9741,127.8430,-21.5396,-15.8613,0.012000
0.2894,-0.2318,0.7313,-14.9848,0.8918,29.1845,0.012000
0.1752,-0.4183,0.8001,-8.0869,1.9360,13.1021,0.012000
0.0858,0.1386,0.9244,-60.7393,1.3338,39.0396,0.012000
0.0271,0.1823,1.3116,-84.8323,15.8918,33.1707,0.012000
0.0461,0.0282,0.9335,9.0015,-5.1905,6.4558,0.012000
0.0328,-0.0079,1.0290,-14.5274,8.1555,5.5564,0.012000
0.0286,0.0011,0.9973,3.0488,1.6845,0.1524,0.012000
-0.0407,-0.1938,1.1656,15.2591,-0.9909,1.0290,0.012000
-0.0051,0.0740,0.8491,74.0930,-14.5198,12.9649,0.012000
0.0912,-0.0977,1.2258,-59.5427,11.3415,20.8841,0.012000
0.0228,0.0471,0.9438,18.3765,-2.5610,5.7165,0.012000
0.0382,0.0374,0.9843,1.3567,-7.3323,-2.0503,0.012000
0.0073,-0.0430,1.0535,-7.1037,7.7820,-0.4954,0.012000
0.0258,0.0264,0.9805,3.9177,1.5015,-0.1067,0.012000
0.0341,0.1645,0.4186,128.9863,-2.0960,34.6646,0.012000
0.2160,0.0905,-0.3359,-18.3003,8.1707,65.8003,0.012000
0.1547,-0.5426,0.3788,-12.3171,-5.1143,27.7210,0.012000
0.1241,0.3651,1.0090,-41.8674,-2.4848,43.8034,0.012000
0.0669,0.2028,1.1439,-23.3918,7.2637,21.3034,0.012000
0.0279,0.0258,1.0251,-8.3232,4.6951,0.7393,0.012000
0.0103,0.0322,0.9781,1.8521,1.1128,0.5869,0.012000
0.0154,0.0180,1.0045,2.4466,-0.1448,-0.2973,0.012000
0.0301,0.0109,1.0211,-0.0305,0.5640,-0.8460,0.012000
0.0403,-0.2350,1.0952,35.2973,-0.2973,9.7104,0.012000
0.0178,-0.1349,0.6148,-43.2698,-2.1418,35.5869,0.012000
-0.0394,0.2581,1.1480,-21.8216,-18.5442,38.8643,0.012000
0.0561,0.1060,1.0186,-5.7241,14.8018,21.8293,0.012000
0.0044,0.0029,0.9245,-2.7896,13.2165,7.5686,0.012000
0.0420,-0.0831,1.0624,-0.6250,-0.0305,1.9284,0.012000
-0.1152,0.3405,-0.1810,76.4939,3.6814,3.8720,0.012000
0.1780,-0.1584,-0.0909,-24.2759,6.4253,40.6555,0.012000
0.2538,-0.2706,0.5656,0.2210,-8.4527,66.9665,0.012000
-0.0657,0.0356,0.9135,-6.5625,-0.7927,42.3552,0.012000
0.0899,0.0637,0.9783,-110.4878,21.2729,34.4588,0.012000
0.0703,-0.0858,1.2173,-34.7866,-15.7317,18.3841,0.012000
0.0279,0.0428,0.8433,32.4619,16.8140,6.9436,0.012000
-0.1129,-0.1823,0.9294,16.7302,7.4390,-2.7134,0.012000
0.2467,-0.2110,0.3958,183.5137,-25.4116,-9.0549,0.012000
0.1632,-0.5315,0.7363,-90.2134,-0.3506,62.3552,0.012000
-0.0229,0.1555,0.3128,8.9024,4.7180,14.8780,0.012000
0.0694,0.2823,0.4836,-40.4040,-7.8430,6.2652,0.012000
0.0597,0.0676,1.0049,-115.9527,-31.9360,-7.5305,0.012000
0.0408,-0.3000,0.9103,-103.8186,1.9588,-11.4634,0.012000
0.1607,-0.1815,1.0551,39.3521,20.0610,5.5259,0.012000
0.0090,-0.0813,0.3493,189.3979,-0.0076,2.9649,0.012000
-0.0633,0.3221,-0.6277,64.1768,9.2683,35.8994,0.012000
0.2775,-0.1323,0.6736,-67.2866,-8.8872,62.1875,0.012000
0.1475,0.0084,0.5120,9.1540,-3.6509,13.7957,0.012000
0.1204,0.0590,1.0378,-124.6113,-1.8750,-20.4649,0.012000
0.1567,-0.3679,0.7648,-87.5762,-2.5915,-26.3643,0.012000
0.0756,-0.1252,0.6914,35.3506,1.4405,2.3476,0.012000
0.0254,0.1010,0.7610,11.7607,12.4848,5.7698,0.012000
0.0562,-0.0781,1.0707,-13.5518,-5.0152,-3.3384,0.012000
0.0281,-0.0058,0.9507,6.8445,4.3902,2.0427,0.012000
0.0110,-0.0295,0.9908,-1.4634,-0.1753,-0.8079,0.012000
0.0099,-0.0325,1.0164,-1.3262,-0.2210,-1.5091,0.012000
0.0206,0.0006,0.9949,1.6082,1.0747,-0.4192,0.012000
0.0515,-0.0100,1.0222,-0.1448,0.1829,-0.6631,0.012000
0.0498,-0.0233,0.9991,-0.2591,0.6250,-0.5335,0.012000
0.0391,-0.0300,0.9839,-0.0762,0.6098,-0.5030,0.012000
0.0308,-0.0342,1.0001,-0.0076,0.2363,-0.4878,0.012000
0.0317,-0.0248,1.0099,0.2973,0.3506,-0.5564,0.012000
0.0381,-0.0114,0.9902,0.4040,0.6936,-0.5640,0.012000
0.0418,-0.0162,1.0042,0.0838,0.1143,-0.5640,0.012000
0.0405,-0.0208,1.0106,0.0838,0.4421,-0.6555,0.012000
0.0410,-0.0187,1.0017,0.1524,0.7851,-0.7317,0.012000
0.0383,-0.0140,0.9929,0.2820,0.6326,-0.6174,0.012000
0.0223,-0.0142,1.0060,-0.1143,0.4802,-0.6326,0.012000
0.0207,-0.0155,0.9993,0.0305,0.7393,-0.4954,0.012000
0.0298,-0.0195,0.9942,0.0534,0.5488,-0.6402,0.012000
0.0413,-0.0229,1.0010,0.0534,0.2439,-0.7241,0.012000
0.0513,-0.0269,1.0040,0.1601,0.3582,-0.6631,0.012000
0.0461,-0.0233,0.9936,0.4040,0.7012,-0.4573,0.012000
0.0326,-0.0214,0.9985,0.5030,0.4878,-0.5183,0.012000
0.0258,-0.0140,1.0035,0.2744,0.5030,-0.5945,0.012000
0.0261,-0.0081,1.0024,0.2668,0.5640,-0.6250,0.012000
0.0377,-0.0192,1.0046,0.3506,0.5183,-0.7088,0.012000
0.0328,-0.0229,0.9880,0.0229,0.3430,-0.5640,0.012000
0.0734,-0.0217,0.8818,-9.6875,-6.1966,-2.4466,0.012000
-0.0052,-0.0652,1.0246,-10.5869,-0.5640,-1.4329,0.012000
0.0330,-0.0673,1.0174,6.3872,1.2043,3.8415,0.012000
0.0730,0.0641,0.9776,3.0793,1.7226,14.5198,0.012000
-0.0264,0.0778,1.0030,1.6921,0.4116,-0.4726,0.012000
0.0292,-0.0353,1.0015,-0.3354,0.5640,-5.9146,0.012000
0.0363,-0.0372,1.0014,-0.0457,0.5412,-1.9741,0.012000
0.0079,0.0179,1.0008,-0.7470,0.5488,-1.1814,0.012000
0.0522,-0.0401,1.0016,0.3201,0.6860,1.3948,0.012000
0.0341,-0.0143,1.0054,0.7851,0.4040,-0.7622,0.012000
0.0411,-0.0193,1.0022,0.3659,0.6326,-0.7698,0.012000
0.0399,-0.0248,1.0005,0.0762,0.5107,-0.5259,0.012000
0.0350,-0.0217,0.9936,0.1296,0.4497,-0.6098,0.012000
-0.0807,0.1893,1.0587,-20.7165,-1.8293,-20.2058,0.012000
0.0091,-0.0492,1.0184,-40.3811,-10.3735,-25.7317,0.012000
-0.1246,0.0782,0.9653,-19.8552,-15.2591,-17.8582,0.012000
-0.0033,0.0245,0.9828,11.6616,6.0061,-19.3826,0.012000
0.0992,-0.2202,0.9731,40.0838,26.1433,-18.4527,0.012000
0.0292,-0.0216,1.0329,-47.5076,-17.0808,4.1616,0.012000
-0.0807,0.0677,1.0638,-80.5183,-61.0671,-7.4543,0.012000
0.0353,-0.1008,1.1218,-138.8491,-114.2454,-3.7271,0.012000
0.1065,-0.3951,0.4370,-33.3765,-133.0412,-0.3125,0.012000
0.2344,-0.1544,0.9539,73.2774,-62.3018,10.6936,0.012000
0.2673,-0.2427,0.8804,19.9466,97.6677,30.2591,0.012000
0.2468,0.1029,0.8337,83.8338,161.6463,19.7409,0.012000
0.0468,0.0618,0.2194,162.7896,105.5564,-2.0732,0.012000
0.2761,0.2432,0.7165,6.0595,-49.1768,-2.9573,0.012000
-0.0087,-0.0039,0.9234,-83.8338,-62.6601,-10.2896,0.012000
0.0331,-0.1471,1.1520,-126.6082,-101.7302,-14.8857,0.012000
0.1327,-0.3339,0.6547,-11.4253,-76.8369,-13.4909,0.012000
0.2771,-0.0605,0.8757,93.0335,0.9070,4.5122,0.012000
0.2823,-0.1466,0.9002,52.4009,93.4375,16.0518,0.012000
0.0620,-0.1694,-0.4899,154.9314,34.4055,6.9436,0.012000
0.2171,0.2109,0.6352,-35.7088,-49.6951,36.8064,0.012000
0.3101,0.2021,0.6755,-93.5747,26.4634,23.8034,0.012000
-0.0688,-0.0190,0.9976,-81.8750,-48.6509,3.8567,0.012000
-0.0107,-0.0583,1.1799,-147.6067,-127.9344,10.4345,0.012000
0.4243,-0.0311,0.6848,110.1753,-31.7683,-13.2622,0.012000
0.3574,-0.1007,0.9905,0.8079,81.8750,-7.8582,0.012000
0.1024,-0.2751,0.6437,40.5259,143.8491,-0.7927,0.012000
0.0480,0.0566,0.4727,187.4085,113.1707,-2.4695,0.012000
0.1066,0.1309,0.5107,51.8979,-9.7104,-12.1265,0.012000
-0.0940,0.0485,1.1171,-119.0244,-85.2287,-0.4649,0.012000
0.0007,0.0481,0.9156,-167.4848,-138.1936,-10.6860,0.012000
0.1836,-0.3569,0.2289,30.8079,-80.3735,-30.8994,0.012000
0.4304,-0.1185,0.9894,56.2729,35.9527,-17.8811,0.012000
0.2388,-0.3417,0.9040,-24.9162,102.2790,4.3902,0.012000
0.0884,0.0299,0.1129,211.9741,92.8963,12.3780,0.012000
-0.0252,0.2338,0.3930,18.0183,1.5854,8.4223,0.012000
0.0954,-0.0766,0.8858,-82.0198,-23.5595,6.3796,0.012000
0.0219,-0.0224,1.0397,-56.8902,-11.6159,-2.6524,0.012000
0.2137,-0.2434,1.0732,-151.1814,-118.8491,-23.9253,0.012000
0.4774,-0.3864,0.5142,-73.8338,-100.1906,-5.3201,0.012000
0.2789,-0.1998,0.6998,105.3735,-13.0488,2.6372,0.012000
0.1375,-0.1132,1.0383,45.3659,111.2881,30.9451,0.012000
0.1224,0.0971,0.4339,98.2317,155.5335,36.2271,0.012000
0.1328,-0.0037,0.9825,-73.9939,-20.8308,-1.4939,0.012000
-0.0815,0.0461,1.0885,-124.2149,-79.1311,-0.6174,0.012000
0.2158,0.0280,0.9228,-175.0762,-140.3125,-9.6494,0.012000
0.2136,-0.4360,0.0464,-10.3963,-63.5213,-35.3811,0.012000
0.2543,-0.1121,0.8835,63.4223,73.6890,-10.2439,0.012000
0.1737,-0.1622,0.9076,12.8354,-3.9787,7.3323,0.012000
0.1368,-0.0101,0.8924,106.3034,102.5534,18.9939,0.012000
0.0578,-0.0888,0.4908,177.0046,130.8613,9.7027,0.012000
0.4800,0.2256,0.4868,59.6951,-18.8415,1.1204,0.012000
0.2107,-0.1395,0.7621,-98.5290,4.2683,10.3201,0.012000
0.1420,-0.1323,0.9762,-99.6951,-84.4741,-5.4192,0.012000
0.1648,-0.2167,0.9300,-49.4131,-46.5549,-9.6951,0.012000
0.1968,-0.0649,0.9012,56.4710,20.0838,-0.6174,0.012000
0.2614,-0.0842,0.8333,114.2454,115.0152,5.0000,0.012000
0.3066,-0.2167,0.2189,162.4314,105.6174,1.1128,0.012000
0.1249,-0.0011,0.9683,-65.0534,-26.4253,9.5884,0.012000
-0.0272,0.0234,1.0418,-51.1128,-11.9893,0.2363,0.012000
-0.0611,0.0147,1.0916,-129.2988,-99.5732,-10.1829,0.012000
0.4246,-0.1880,0.8708,-186.0366,-147.5686,-23.9863,0.012000
0.2583,-0.0651,0.8229,37.4466,-51.0671,-28.6204,0.012000
-0.0588,-0.0231,0.9410,-6.6387,25.4116,15.8384,0.012000
0.2880,-0.2667,0.9481,24.5579,18.2012,1.9207,0.012000
0.0165,-0.0106,1.0005,76.6463,63.0335,12.2409,0.012000
-0.1261,0.0937,1.0307,82.8963,66.1662,7.0579,0.012000
-0.0157,0.0380,1.0538,-66.4939,-51.4634,-6.1433,0.012000
0.0686,-0.1418,1.0168,-120.8003,-94.7027,-5.9985,0.012000
0.2651,-0.2667,0.8450,-67.0503,-70.5107,-12.4162,0.012000
0.2101,-0.0568,0.8973,62.6220,10.8841,-1.3262,0.012000
0.2904,-0.1818,0.8664,68.8186,111.4558,7.2561,0.012000
0.0629,0.2083,0.1739,108.2165,12.7134,-7.6829,0.012000
0.1559,0.0280,0.5732,-56.9665,-6.9588,-4.7180,0.012000
0.0261,-0.0751,1.0516,-44.0930,6.1433,7.7134,0.012000
-0.0925,0.1456,1.1071,-32.8582,-29.8171,6.0290,0.012000
-0.0105,0.0406,1.0961,-139.0168,-108.3384,-0.9451,0.012000
0.2612,-0.1786,0.4730,56.3338,-25.9985,-7.2104,0.012000
0.2012,-0.1382,0.9880,56.6540,95.7393,9.2607,0.012000
0.0275,-0.1025,0.8555,67.3171,80.8765,14.3826,0.012000
-0.0739,0.0532,0.9725,109.8781,76.8369,11.5549,0.012000
0.0323,0.1602,0.7465,86.4253,40.8460,3.4909,0.012000
-0.0497,-0.0358,1.0245,-73.4527,-45.6479,3.3155,0.012000
0.0056,-0.0157,1.0434,-110.6250,-90.8156,-8.3613,0.012000
0.2060,-0.3128,0.8298,-129.6494,-100.5488,-12.5305,0.012000
0.2958,-0.1754,0.5276,34.4360,-18.0945,-3.9101,0.012000
0.0035,-0.0369,0.8398,78.8034,95.0991,6.5091,0.012000
0.2191,0.0777,0.3477,155.3201,64.5046,1.3567,0.012000
0.0726,-0.0214,0.5446,-4.3140,-13.1250,0.7393,0.012000
0.1446,-0.0110,0.7955,-48.4604,8.9482,9.3445,0.012000
-0.0888,0.1032,1.1005,-50.6174,-20.0991,-4.8933,0.012000
0.4539,-0.2712,0.6750,-171.8140,-129.0015,-31.6540,0.012000
0.4433,-0.3192,0.1281,37.1875,-27.3171,-16.7073,0.012000
0.1656,-0.0306,0.9510,73.5518,97.8659,12.2637,0.012000
0.0603,-0.0884,0.9359,28.2012,43.8262,30.3354,0.012000
0.0447,-0.0477,0.9226,52.7210,29.2530,26.7988,0.012000
0.0358,0.2078,0.8430,87.4543,48.7195,7.4238,0.012000
-0.0541,0.0165,1.0385,-54.7866,-25.7012,3.2012,0.012000
-0.0380,-0.0450,1.0370,-98.3537,-70.3659,-5.9756,0.012000
0.1517,-0.0859,1.0940,-130.9375,-106.1662,-6.2805,0.012000
0.2048,-0.4153,0.4535,-70.9756,-66.3796,-7.1189,0.012000
0.1349,-0.1329,0.7997,102.1494,138.4756,24.9238,0.012000
0.1191,-0.0511,0.5083,181.8598,102.0046,19.7561,0.012000
0.1870,0.0524,0.2070,75.6860,-39.6265,10.9985,0.012000
0.3492,0.0504,0.6893,-53.5290,27.2332,22.2256,0.012000
0.1833,0.0934,0.3719,-40.2058,15.1296,10.8841,0.012000
0.1187,-0.0779,1.1160,-148.8796,-115.8689,-20.6098,0.012000
0.3685,-0.2999,0.8615,-145.4573,-108.5366,-18.7348,0.012000
0.1890,-0.2607,0.3899,29.1997,-16.5701,-4.4131,0.012000
0.1049,-0.0400,0.8263,100.1372,96.1509,15.7927,0.012000
-0.0728,0.1453,0.8445,109.5427,116.4558,20.5183,0.012000
0.0782,0.0764,0.9263,15.8460,-1.8064,8.8872,0.012000
0.0087,-0.0266,1.0485,-49.3674,-6.3567,20.3659,0.012000
-0.0423,0.0261,1.0560,-40.7317,-26.8902,9.6799,0.012000
0.0180,-0.0747,1.0356,-96.7607,-77.2409,-0.6631,0.012000
0.2246,-0.2652,0.3567,-37.7515,-31.3338,-7.4771,0.012000
0.2076,-0.1083,0.8470,93.9329,64.2607,-1.8140,0.012000
-0.0168,-0.0358,1.0934,109.3598,89.6341,3.8491,0.012000
0.0334,-0.0459,0.9142,105.1753,80.8918,3.0640,0.012000
-0.0007,0.1819,0.7649,66.8216,22.9726,1.0899,0.012000
-0.0546,0.0451,1.0888,-75.3125,-45.7470,5.9680,0.012000
0.0702,0.0300,1.0942,-141.5473,-114.0549,0.8994,0.012000
0.3295,-0.3021,0.3443,-155.9832,-80.2058,-2.1494,0.012000
0.0686,-0.3369,0.1512,33.9558,25.4726,-3.4604,0.012000
0.0771,-0.0273,1.0527,123.2165,39.3216,2.4390,0.012000
0.0616,-0.0912,0.9323,84.0854,68.7424,24.4360,0.012000
0.1332,0.1928,0.5692,129.7027,74.5122,18.9863,0.012000
0.1334,0.2506,0.8006,-35.9756,-13.7957,3.3918,0.012000
-0.0959,0.0963,1.1392,-164.2378,-107.4848,-8.7348,0.012000
0.4797,-0.0320,0.7363,-227.3171,-129.7866,-30.5716,0.012000
0.0124,-0.2269,1.0393,172.0960,5.0305,-7.7973,0.012000
0.0555,0.0773,1.3625,17.2790,-9.4055,-2.8354,0.012000
0.1671,-0.4771,0.1772,-78.9482,-6.6616,9.2683,0.012000
0.1547,0.0576,0.7076,110.7012,19.5960,28.3994,0.012000
-0.0113,0.1826,0.9865,133.6052,110.2820,20.8460,0.012000
0.0123,0.1547,0.9163,-1.6616,-3.6433,8.4223,0.012000
-0.1246,0.1117,1.1091,-129.3674,-93.4527,5.6707,0.012000
0.4275,-0.2667,1.0481,-213.2546,-138.2241,-6.3796,0.012000
0.2449,-0.4082,-0.0654,-104.7713,9.2530,-1.7759,0.012000
0.1862,-0.0405,1.0521,88.7881,18.6052,-8.9787,0.012000
-0.0137,-0.0630,0.9377,-46.4939,-11.5396,8.7348,0.012000
0.1439,-0.0732,0.9252,26.3034,14.5046,14.2835,0.012000
0.0190,-0.0378,1.0232,105.2668,78.3765,4.3293,0.012000
-0.1533,0.1985,1.1340,60.4497,48.6662,-3.0716,0.012000
0.3566,-0.3988,0.4324,-216.2424,-90.7927,-18.0335,0.012000
0.0233,-0.3707,-0.1346,-24.2759,38.0793,-1.0595,0.012000
0.0519,0.1699,1.4467,173.5137,-3.8872,5.0076,0.012000
0.1234,-0.0815,1.1745,-46.7302,-13.6052,-4.2073,0.012000
0.0988,-0.5172,0.1978,-47.2332,4.2759,8.8567,0.012000
0.0500,0.1375,1.1417,75.6860,55.3277,23.9558,0.012000
0.0157,0.0161,1.0137,11.0213,14.4665,7.9192,0.012000
-0.0159,0.0132,1.0383,-31.7988,-25.1372,-2.5000,0.012000
0.0984,-0.1075,1.0313,-74.4665,-54.8704,-0.7698,0.012000
0.1571,-0.2184,0.8387,-43.2012,-25.7470,-2.6296,0.012000
0.1153,-0.1312,0.9934,95.3277,69.9619,10.5488,0.012000
0.1967,-0.1992,0.8115,137.9116,104.8323,3.4756,0.012000
0.0776,0.0574,0.0209,130.5716,38.3308,6.3110,0.012000
0.0378,0.1514,0.4714,-29.0168,-7.0503,23.5061,0.012000
0.0695,0.0253,0.7434,-42.3628,-2.7744,12.1951,0.012000
0.0348,-0.0721,1.0894,-29.8933,1.2271,-8.2851,0.012000
0.0335,-0.1064,0.9324,-8.4909,0.8232,-1.4329,0.012000
0.0258,-0.0084,1.0118,10.9146,-0.0229,0.4268,0.012000
0.0316,-0.0602,1.0008,-4.3826,0.6402,0.3277,0.012000
0.0273,-0.0068,1.0057,13.6280,0.6174,-1.3338,0.012000
0.0314,-0.0132,1.0009,3.4756,0.7012,-0.5869,0.012000
0.0372,-0.0140,0.9961,0.0534,0.6326,-0.5716,0.012000
0.0408,-0.0213,0.9981,-5.0076,0.4726,-0.3811,0.012000
0.0435,-0.0319,1.0034,-8.3841,0.4040,-0.2744,0.012000
0.0432,-0.0399,1.0005,-9.2226,0.4878,-0.3125,0.012000
0.0385,-0.0325,1.0024,0.0915,0.7698,-0.5793,0.012000
0.0318,-0.0209,1.0018,1.4177,0.7622,-0.4649,0.012000
0.0253,-0.0414,0.9984,0.7317,0.6250,-0.5412,0.012000
0.0300,-0.0292,1.0000,6.3034,0.6021,-0.8689,0.012000
0.0422,-0.0240,1.0021,2.4085,0.3887,-0.6860,0.012000
0.0433,-0.0195,1.0049,1.2271,0.5869,-0.6021,0.012000
0.0403,-0.0208,1.0056,-0.5030,0.6631,-0.4802,0.012000
0.0378,-0.0199,1.0015,-1.1738,0.6860,-0.4573,0.012000
0.0333,-0.0247,0.9990,-2.2332,0.5945,-0.4878,0.012000
0.0042,-0.0392,0.9863,0.8384,0.3659,-1.4177,0.012000
0.1714,-0.1306,0.8691,74.3293,25.8460,-18.3994,0.012000
-0.1466,-0.0227,0.2960,79.0473,27.2942,-19.9314,0.012000
0.0219,0.0142,0.8838,-26.9131,-2.3552,-5.2896,0.012000
0.0849,0.0846,0.9571,-32.8887,-10.2668,-22.5000,0.012000
-0.0040,-0.1985,0.8066,-66.8826,-12.0274,-33.8491,0.012000
0.0676,-0.1867,1.0153,21.6235,4.4131,-2.1494,0.012000
0.0128,0.1006,0.9892,40.6479,0.6555,7.5381,0.012000
0.0765,-0.0132,1.0031,-15.9909,-0.0915,2.0274,0.012000
0.0776,0.0063,1.0573,35.8308,12.3933,-0.4573,0.012000
-0.0433,0.0775,0.5589,115.8003,33.1326,15.0076,0.012000
-0.1631,0.2379,0.7999,-3.9634,0.7927,28.5290,0.012000
0.1012,0.0698,0.8440,-79.5198,-8.2088,5.1677,0.012000
0.2946,-0.0675,1.1552,-59.8628,-34.6113,-15.6631,0.012000
0.1011,-0.2575,0.9127,17.9421,3.3079,-12.5762,0.012000
0.0316,0.0357,1.0224,29.8628,-0.0610,5.7546,0.012000
0.1450,-0.0541,1.2272,3.5290,4.4512,-2.9421,0.012000
0.1646,-0.0872,0.4320,116.3415,43.7195,-14.1006,0.012000
-0.0682,0.0472,0.6376,79.4360,-13.3841,-19.9390,0.012000
0.1534,0.0369,0.6840,-41.1128,-4.0701,-66.9665,0.012000
0.2658,0.1566,0.6425,-84.7409,-9.9619,-70.0076,0.012000
0.0999,-0.1273,0.4528,-101.1738,-15.5030,-51.1509,0.012000
0.1046,-0.0620,0.6903,8.2317,-3.4909,-3.5747,0.012000
-0.0056,0.1683,0.9795,44.6189,4.5732,6.8216,0.012000
0.2292,-0.3510,0.9781,66.2271,33.2165,2.4162,0.012000
0.0356,-0.1871,0.3849,103.7576,14.5503,26.5701,0.012000
0.1616,-0.1063,0.6453,8.7500,-9.0473,58.2470,0.012000
0.0262,0.1232,0.7428,-35.7317,8.4070,64.0396,0.012000
0.0144,0.2833,0.8687,-63.4146,-7.0503,46.1128,0.012000
-0.1810,-0.0567,0.6685,-51.2424,-0.5945,17.2332,0.012000
0.0159,-0.0137,0.8603,30.0076,0.3811,33.5671,0.012000
0.0763,0.0438,1.0178,31.4558,-1.2500,36.8293,0.012000
0.1089,-0.1552,1.2660,16.6082,2.1723,24.9314,0.012000
0.0096,0.1367,-0.4100,146.0061,41.2729,13.6738,0.012000
0.1392,0.0788,0.5443,-38.3994,-6.0290,39.3369,0.012000
0.1674,0.0424,0.7775,8.8110,-2.1189,3.9558,0.012000
0.0120,0.1342,0.8619,-36.7607,0.3506,-29.7104,0.012000
0.0338,0.2338,0.7582,-107.1189,12.1951,-47.9116,0.012000
0.0496,-0.2079,0.8107,-6.7454,-6.6997,-26.1509,0.012000
-0.0362,-0.3056,0.3719,150.5107,48.8872,22.4695,0.012000
-0.0576,-0.0948,0.1069,127.1189,-12.6143,58.5976,0.012000
0.0999,0.1694,0.3417,17.4085,-7.6220,70.6631,0.012000
0.2058,0.0156,0.9160,-22.3247,-0.0152,37.8277,0.012000
0.0937,0.2192,0.8474,-89.2454,9.2226,-18.1631,0.012000
0.0457,-0.0510,0.2070,-144.3979,-13.8643,-25.9985,0.012000
0.1984,-0.2143,0.2204,-88.3918,-9.0015,-20.6860,0.012000
0.0953,-0.1644,0.3088,34.1311,3.3765,-8.1936,0.012000
0.0732,-0.0425,0.7881,68.3537,-7.3857,1.7912,0.012000
0.0303,-0.0305,1.0571,-4.1921,0.7012,0.1220,0.012000
0.0479,-0.1254,1.1223,22.8659,12.6296,-7.6448,0.012000
-0.0821,0.1043,0.5201,16.6235,9.8780,4.8247,0.012000
0.1127,0.0143,0.8442,-57.9954,-21.6159,10.9299,0.012000
0.0648,-0.0343,0.9771,-17.3857,0.6784,-2.2485,0.012000
0.0218,-0.0883,1.0031,-19.2530,-0.0915,-0.0457,0.012000
0.0392,-0.0634,1.0033,9.1463,0.8384,-0.5259,0.012000
0.0505,-0.0110,0.9981,16.2195,0.8689,-1.3720,0.012000
0.0042,-0.0859,1.0237,8.0259,0.4268,-1.1052,0.012000
-0.0328,0.0627,0.3042,83.1021,30.7393,-9.1311,0.012000
0.0388,0.0965,0.9357,-18.1402,-5.4192,-8.0412,0.012000
0.0520,0.1205,0.7857,-48.2927,-0.0915,-28.7805,0.012000
0.0802,0.1221,0.9202,-66.5168,-34.1845,-47.0046,0.012000
-0.1465,-0.2155,0.7802,-61.2195,-6.3262,-37.6372,0.012000
0.1165,0.0273,1.0386,41.5091,0.6555,18.3155,0.012000
0.0482,0.0089,1.0085,0.1220,-0.1524,14.1311,0.012000
0.0535,-0.0430,1.0053,-0.7774,0.6402,7.7287,0.012000
0.0407,0.0012,0.9904,0.0305,0.6707,2.5762,0.012000
0.0211,-0.0380,0.9938,-19.7104,0.4421,-0.0229,0.012000
0.0389,-0.0433,1.0048,-0.5640,0.4802,-0.6479,0.012000
0.0489,0.0075,1.0117,13.4756,0.7012,-0.9985,0.012000
0.0457,0.0132,1.0035,5.7088,0.6479,-0.6707,0.012000
0.0353,-0.0254,1.0021,-2.4695,0.6326,-0.4497,0.012000
0.0253,-0.0334,0.9987,-0.5564,0.6936,-0.6250,0.012000
0.0349,-0.0480,0.9968,-4.0777,0.5107,-0.5640,0.012000
0.0391,-0.0341,1.0022,2.6296,0.4802,-0.6250,0.012000
0.0357,-0.0185,1.0020,3.3308,0.4573,-0.4802,0.012000
0.0389,-0.0218,0.9989,-1.4939,0.4192,-0.4192,0.012000
0.0451,-0.0262,1.0020,-1.7607,0.4649,-0.5183,0.012000
0.0448,-0.0093,1.0064,0.6174,0.7165,-0.6479,0.012000
0.0328,-0.0226,1.0012,-1.6540,0.7165,-0.5412,0.012000
0.0217,-0.0333,0.9969,-0.7546,0.6707,-0.3811,0.012000
0.0162,-0.0433,0.9922,1.0290,0.4954,-0.4497,0.012000
-0.0601,0.1031,0.5297,22.2485,1.0213,4.0396,0.012000
0.0706,0.0381,0.9681,-24.0015,-11.2881,10.4040,0.012000
0.0446,0.0247,1.0875,-10.1220,-5.1982,-11.5549,0.012000
-0.0839,0.0342,0.9866,-6.0976,1.9436,-20.3049,0.012000
-0.3014,-0.0121,1.0060,-3.8643,-2.1723,-20.9985,0.012000
-0.1672,0.2029,0.4198,2.2790,0.2820,-23.0716,0.012000
-0.2224,0.0901,0.2610,3.4604,4.1235,-49.0320,0.012000
-0.1238,0.0984,0.2611,-0.0762,-12.9345,-68.0107,0.012000
0.3766,-0.0662,0.3300,9.6341,-21.7226,-96.2195,0.012000
1.6144,-0.8057,0.6260,34.8628,-12.5305,-81.7912,0.012000
-0.4745,0.2943,1.1475,-24.4436,4.2454,-14.6875,0.012000
0.3728,-0.1321,0.9351,-30.4116,20.1753,-38.2317,0.012000
0.2460,0.0493,0.9318,-39.7027,9.0549,-7.7287,0.012000
0.0236,-0.0544,1.0125,-24.8857,2.1723,3.5061,0.012000
-0.0145,-0.0554,1.0335,3.4451,0.9756,1.1357,0.012000
-0.0783,-0.0135,1.0728,-13.7500,-8.6052,-6.6768,0.012000
-0.0795,-0.0482,1.0237,-23.3155,-14.6799,-12.8277,0.012000
0.1720,-0.0958,0.9719,-21.4024,-18.5137,-23.1402,0.012000
0.2595,-0.0800,1.0068,-19.6951,-33.1174,-17.5838,0.012000
0.1142,-0.0525,0.9929,-14.9466,-53.0030,-5.9451,0.012000
0.1143,-0.1116,1.1372,-23.9634,-84.7942,-18.5595,0.012000
0.2667,-0.0787,1.2663,-36.4863,-130.8689,-15.0457,0.012000
0.4839,-0.1943,1.1934,-51.3643,-185.5031,0.2668,0.012000
0.4183,0.0120,1.1500,-45.7012,-200.3201,18.4146,0.012000
0.1805,-0.0685,1.2874,11.7302,-113.1860,-4.3902,0.012000
0.1897,0.0237,0.8831,47.1875,29.0625,-38.5976,0.012000
0.0580,-0.0896,0.3845,62.1723,41.3720,-46.7302,0.012000
-0.1746,-0.0443,-0.0750,58.1631,49.3064,-48.6280,0.012000
-0.3663,0.0450,-0.0845,28.5823,67.4314,-42.3018,0.012000
-0.1448,-0.0880,1.5953,-53.7729,141.3034,-31.2119,0.012000
0.2023,-0.0786,1.9999,-62.0427,90.9070,-33.3308,0.012000
0.3342,0.0417,1.9706,-32.4543,-45.9832,-1.9817,0.012000
0.4531,-0.0742,1.6987,37.5076,-106.1890,5.2896,0.012000
0.5698,-0.0856,0.7781,94.9924,-78.6128,2.7820,0.012000
-0.1379,0.0531,-0.5801,53.7271,92.7973,-12.8201,0.012000
-0.4836,-0.0638,-0.3500,-35.4116,163.5137,-12.9192,0.012000
-0.5318,-0.0135,0.4490,-92.1570,169.1311,-21.7759,0.012000
0.5285,-0.1299,1.6043,-168.9482,24.7409,-26.7302,0.012000
0.6495,-0.2597,1.9972,-156.0976,-186.6006,24.4512,0.012000
0.9056,0.0216,0.9316,26.6235,-14.2988,-0.6174,0.012000
0.4462,-0.3105,1.4075,5.0152,14.9771,-29.4360,0.012000
-0.4388,0.0585,0.8837,44.3140,99.7256,-48.0259,0.012000
-0.4909,-0.0316,0.2758,20.1296,107.2332,-29.5503,0.012000
